onset	duration	TrialEvent	ToneLabel	Trial	CRESP	RESP	ACC	RT	Code
0.06	2	TrialStart	Standard	1	0	0	1	n/a	CorrectRejection
2.06	0.2	ToneStart	Standard	1	0	0	1	n/a	CorrectRejection
3.327	2	TrialStart	Standard	2	0	0	1	n/a	CorrectRejection
5.326	0.2	ToneStart	Standard	2	0	0	1	n/a	CorrectRejection
6.593	2	TrialStart	Standard	3	0	0	1	n/a	CorrectRejection
8.593	0.2	ToneStart	Standard	3	0	0	1	n/a	CorrectRejection
9.859	2	TrialStart	Novel	4	0	0	1	n/a	CorrectRejection
11.859	0.2	ToneStart	Novel	4	0	0	1	n/a	CorrectRejection
13.126	1	TrialStart	Standard	5	0	0	1	n/a	CorrectRejection
14.125	0.2	ToneStart	Standard	5	0	0	1	n/a	CorrectRejection
15.392	1	TrialStart	Standard	6	0	0	1	n/a	CorrectRejection
16.409	0.2	ToneStart	Standard	6	0	0	1	n/a	CorrectRejection
17.675	2	TrialStart	Standard	7	0	0	1	n/a	CorrectRejection
19.675	0.2	ToneStart	Standard	7	0	0	1	n/a	CorrectRejection
20.942	1	TrialStart	Standard	8	0	0	1	n/a	CorrectRejection
21.941	0.2	ToneStart	Standard	8	0	0	1	n/a	CorrectRejection
23.208	1	TrialStart	Standard	9	0	0	1	n/a	CorrectRejection
24.208	0.2	ToneStart	Standard	9	0	0	1	n/a	CorrectRejection
25.474	1	TrialStart	Standard	10	0	0	1	n/a	CorrectRejection
26.474	0.2	ToneStart	Standard	10	0	0	1	n/a	CorrectRejection
27.741	1	TrialStart	Oddball	11	1	1	1	345	Hit
28.744	0.2	ToneStart	Oddball	11	1	1	1	345	Hit
30.007	1	TrialStart	Standard	12	0	0	1	n/a	CorrectRejection
31.024	0.2	ToneStart	Standard	12	0	0	1	n/a	CorrectRejection
32.29	2	TrialStart	Standard	13	0	0	1	n/a	CorrectRejection
34.29	0.2	ToneStart	Standard	13	0	0	1	n/a	CorrectRejection
35.557	1	TrialStart	Standard	14	0	0	1	n/a	CorrectRejection
36.557	0.2	ToneStart	Standard	14	0	0	1	n/a	CorrectRejection
37.824	2	TrialStart	Standard	15	0	0	1	n/a	CorrectRejection
39.823	0.2	ToneStart	Standard	15	0	0	1	n/a	CorrectRejection
41.09	2	TrialStart	Standard	16	0	0	1	n/a	CorrectRejection
43.089	0.2	ToneStart	Standard	16	0	0	1	n/a	CorrectRejection
44.356	1	TrialStart	Novel	17	0	0	1	n/a	CorrectRejection
45.356	0.2	ToneStart	Novel	17	0	0	1	n/a	CorrectRejection
46.622	2	TrialStart	Standard	18	0	0	1	n/a	CorrectRejection
48.622	0.2	ToneStart	Standard	18	0	0	1	n/a	CorrectRejection
49.889	2	TrialStart	Standard	19	0	0	1	n/a	CorrectRejection
51.889	0.2	ToneStart	Standard	19	0	0	1	n/a	CorrectRejection
53.155	1	TrialStart	Standard	20	0	0	1	n/a	CorrectRejection
54.155	0.2	ToneStart	Standard	20	0	0	1	n/a	CorrectRejection
55.422	2	TrialStart	Standard	21	0	0	1	n/a	CorrectRejection
57.421	0.2	ToneStart	Standard	21	0	0	1	n/a	CorrectRejection
58.688	2	TrialStart	Standard	22	0	0	1	n/a	CorrectRejection
60.688	0.2	ToneStart	Standard	22	0	0	1	n/a	CorrectRejection
61.954	1	TrialStart	Novel	23	0	0	1	n/a	CorrectRejection
62.954	0.2	ToneStart	Novel	23	0	0	1	n/a	CorrectRejection
64.221	2	TrialStart	Oddball	24	1	1	1	575	Hit
66.222	0.2	ToneStart	Oddball	24	1	1	1	575	Hit
67.487	2	TrialStart	Standard	25	0	0	1	n/a	CorrectRejection
69.487	0.2	ToneStart	Standard	25	0	0	1	n/a	CorrectRejection
70.77	2	TrialStart	Standard	26	0	0	1	n/a	CorrectRejection
72.77	0.2	ToneStart	Standard	26	0	0	1	n/a	CorrectRejection
74.037	1	TrialStart	Standard	27	0	0	1	n/a	CorrectRejection
75.037	0.2	ToneStart	Standard	27	0	0	1	n/a	CorrectRejection
76.303	2	TrialStart	Standard	28	0	0	1	n/a	CorrectRejection
78.303	0.2	ToneStart	Standard	28	0	0	1	n/a	CorrectRejection
79.569	2	TrialStart	Oddball	29	1	1	1	425	Hit
81.569	0.2	ToneStart	Oddball	29	1	1	1	425	Hit
82.837	1	TrialStart	Novel	30	0	0	1	n/a	CorrectRejection
83.836	0.2	ToneStart	Novel	30	0	0	1	n/a	CorrectRejection
85.102	1	TrialStart	Standard	31	0	0	1	n/a	CorrectRejection
86.106	0.2	ToneStart	Standard	31	0	0	1	n/a	CorrectRejection
87.369	2	TrialStart	Standard	32	0	0	1	n/a	CorrectRejection
89.368	0.2	ToneStart	Standard	32	0	0	1	n/a	CorrectRejection
90.635	1	TrialStart	Novel	33	0	0	1	n/a	CorrectRejection
91.636	0.2	ToneStart	Novel	33	0	0	1	n/a	CorrectRejection
92.901	2	TrialStart	Standard	34	0	0	1	n/a	CorrectRejection
94.901	0.2	ToneStart	Standard	34	0	0	1	n/a	CorrectRejection
96.168	2	TrialStart	Standard	35	0	0	1	n/a	CorrectRejection
98.168	0.2	ToneStart	Standard	35	0	0	1	n/a	CorrectRejection
99.434	1	TrialStart	Standard	36	0	0	1	n/a	CorrectRejection
100.435	0.2	ToneStart	Standard	36	0	0	1	n/a	CorrectRejection
101.701	1	TrialStart	Standard	37	0	0	1	n/a	CorrectRejection
102.701	0.2	ToneStart	Standard	37	0	0	1	n/a	CorrectRejection
103.967	2	TrialStart	Standard	38	0	0	1	n/a	CorrectRejection
105.967	0.2	ToneStart	Standard	38	0	0	1	n/a	CorrectRejection
107.234	2	TrialStart	Oddball	39	1	1	1	324	Hit
109.233	0.2	ToneStart	Oddball	39	1	1	1	324	Hit
110.5	2	TrialStart	Standard	40	0	0	1	n/a	CorrectRejection
112.5	0.2	ToneStart	Standard	40	0	0	1	n/a	CorrectRejection
113.766	2	TrialStart	Standard	41	0	0	1	n/a	CorrectRejection
115.767	0.2	ToneStart	Standard	41	0	0	1	n/a	CorrectRejection
117.033	1	TrialStart	Standard	42	0	0	1	n/a	CorrectRejection
118.032	0.2	ToneStart	Standard	42	0	0	1	n/a	CorrectRejection
119.299	1	TrialStart	Standard	43	0	0	1	n/a	CorrectRejection
120.299	0.2	ToneStart	Standard	43	0	0	1	n/a	CorrectRejection
121.566	1	TrialStart	Novel	44	0	0	1	n/a	CorrectRejection
122.565	0.2	ToneStart	Novel	44	0	0	1	n/a	CorrectRejection
123.832	1	TrialStart	Standard	45	0	0	1	n/a	CorrectRejection
124.841	0.2	ToneStart	Standard	45	0	0	1	n/a	CorrectRejection
126.098	2	TrialStart	Standard	46	0	0	1	n/a	CorrectRejection
128.098	0.2	ToneStart	Standard	46	0	0	1	n/a	CorrectRejection
129.365	2	TrialStart	Standard	47	0	0	1	n/a	CorrectRejection
131.365	0.2	ToneStart	Standard	47	0	0	1	n/a	CorrectRejection
132.631	1	TrialStart	Standard	48	0	0	1	n/a	CorrectRejection
133.631	0.2	ToneStart	Standard	48	0	0	1	n/a	CorrectRejection
134.898	2	TrialStart	Oddball	49	1	1	1	386	Hit
136.897	0.2	ToneStart	Oddball	49	1	1	1	386	Hit
138.164	2	TrialStart	Standard	50	0	0	1	n/a	CorrectRejection
140.165	0.2	ToneStart	Standard	50	0	0	1	n/a	CorrectRejection
141.43	2	TrialStart	Standard	51	0	0	1	n/a	CorrectRejection
143.43	0.2	ToneStart	Standard	51	0	0	1	n/a	CorrectRejection
144.697	2	TrialStart	Standard	52	0	0	1	n/a	CorrectRejection
146.696	0.2	ToneStart	Standard	52	0	0	1	n/a	CorrectRejection
147.963	2	TrialStart	Novel	53	0	0	1	n/a	CorrectRejection
149.963	0.2	ToneStart	Novel	53	0	0	1	n/a	CorrectRejection
151.229	2	TrialStart	Standard	54	0	0	1	n/a	CorrectRejection
153.229	0.2	ToneStart	Standard	54	0	0	1	n/a	CorrectRejection
154.496	1	TrialStart	Standard	55	0	0	1	n/a	CorrectRejection
155.512	0.2	ToneStart	Standard	55	0	0	1	n/a	CorrectRejection
156.779	1	TrialStart	Novel	56	0	0	1	n/a	CorrectRejection
157.779	0.2	ToneStart	Novel	56	0	0	1	n/a	CorrectRejection
159.045	2	TrialStart	Standard	57	0	0	1	n/a	CorrectRejection
161.045	0.2	ToneStart	Standard	57	0	0	1	n/a	CorrectRejection
162.312	1	TrialStart	Standard	58	0	0	1	n/a	CorrectRejection
163.312	0.2	ToneStart	Standard	58	0	0	1	n/a	CorrectRejection
164.578	1	TrialStart	Standard	59	0	0	1	n/a	CorrectRejection
165.578	0.2	ToneStart	Standard	59	0	0	1	n/a	CorrectRejection
166.845	1	TrialStart	Oddball	60	1	1	1	439	Hit
167.844	0.2	ToneStart	Oddball	60	1	1	1	439	Hit
169.111	1	TrialStart	Standard	61	0	0	1	n/a	CorrectRejection
170.112	0.2	ToneStart	Standard	61	0	0	1	n/a	CorrectRejection
171.378	2	TrialStart	Standard	62	0	0	1	n/a	CorrectRejection
173.377	0.2	ToneStart	Standard	62	0	0	1	n/a	CorrectRejection
174.644	2	TrialStart	Standard	63	0	0	1	n/a	CorrectRejection
176.644	0.2	ToneStart	Standard	63	0	0	1	n/a	CorrectRejection
177.91	1	TrialStart	Standard	64	0	0	1	n/a	CorrectRejection
178.91	0.2	ToneStart	Standard	64	0	0	1	n/a	CorrectRejection
180.177	1	TrialStart	Novel	65	0	0	1	n/a	CorrectRejection
181.177	0.2	ToneStart	Novel	65	0	0	1	n/a	CorrectRejection
182.443	2	TrialStart	Standard	66	0	0	1	n/a	CorrectRejection
184.443	0.2	ToneStart	Standard	66	0	0	1	n/a	CorrectRejection
185.709	1	TrialStart	Standard	67	0	0	1	n/a	CorrectRejection
186.713	0.2	ToneStart	Standard	67	0	0	1	n/a	CorrectRejection
187.976	2	TrialStart	Oddball	68	1	1	1	518	Hit
189.976	0.2	ToneStart	Oddball	68	1	1	1	518	Hit
191.242	1	TrialStart	Standard	69	0	0	1	n/a	CorrectRejection
192.242	0.2	ToneStart	Standard	69	0	0	1	n/a	CorrectRejection
193.509	1	TrialStart	Standard	70	0	0	1	n/a	CorrectRejection
194.509	0.2	ToneStart	Standard	70	0	0	1	n/a	CorrectRejection
195.775	2	TrialStart	Standard	71	0	0	1	n/a	CorrectRejection
197.775	0.2	ToneStart	Standard	71	0	0	1	n/a	CorrectRejection
199.042	2	TrialStart	Standard	72	0	0	1	n/a	CorrectRejection
201.041	0.2	ToneStart	Standard	72	0	0	1	n/a	CorrectRejection
202.308	1	TrialStart	Standard	73	0	0	1	n/a	CorrectRejection
203.308	0.2	ToneStart	Standard	73	0	0	1	n/a	CorrectRejection
204.574	2	TrialStart	Standard	74	0	0	1	n/a	CorrectRejection
206.574	0.2	ToneStart	Standard	74	0	0	1	n/a	CorrectRejection
207.841	2	TrialStart	Oddball	75	1	1	1	356	Hit
209.841	0.2	ToneStart	Oddball	75	1	1	1	356	Hit
211.107	2	TrialStart	Standard	76	0	0	1	n/a	CorrectRejection
213.107	0.2	ToneStart	Standard	76	0	0	1	n/a	CorrectRejection
214.373	1	TrialStart	Standard	77	0	0	1	n/a	CorrectRejection
215.374	0.2	ToneStart	Standard	77	0	0	1	n/a	CorrectRejection
216.64	2	TrialStart	Standard	78	0	0	1	n/a	CorrectRejection
218.64	0.2	ToneStart	Standard	78	0	0	1	n/a	CorrectRejection
219.906	1	TrialStart	Novel	79	0	0	1	n/a	CorrectRejection
220.907	0.2	ToneStart	Novel	79	0	0	1	n/a	CorrectRejection
222.173	2	TrialStart	Standard	80	0	0	1	n/a	CorrectRejection
224.173	0.2	ToneStart	Standard	80	0	0	1	n/a	CorrectRejection
225.439	2	TrialStart	Standard	81	0	0	1	n/a	CorrectRejection
227.439	0.2	ToneStart	Standard	81	0	0	1	n/a	CorrectRejection
228.705	2	TrialStart	Oddball	82	1	1	1	330	Hit
230.705	0.2	ToneStart	Oddball	82	1	1	1	330	Hit
231.972	2	TrialStart	Standard	83	0	0	1	n/a	CorrectRejection
233.972	0.2	ToneStart	Standard	83	0	0	1	n/a	CorrectRejection
235.238	2	TrialStart	Standard	84	0	0	1	n/a	CorrectRejection
237.238	0.2	ToneStart	Standard	84	0	0	1	n/a	CorrectRejection
238.505	2	TrialStart	Novel	85	0	0	1	n/a	CorrectRejection
240.504	0.2	ToneStart	Novel	85	0	0	1	n/a	CorrectRejection
241.771	1	TrialStart	Standard	86	0	0	1	n/a	CorrectRejection
242.771	0.2	ToneStart	Standard	86	0	0	1	n/a	CorrectRejection
244.021	2	TrialStart	Standard	87	0	0	1	n/a	CorrectRejection
246.021	0.2	ToneStart	Standard	87	0	0	1	n/a	CorrectRejection
247.287	1	TrialStart	Standard	88	0	0	1	n/a	CorrectRejection
248.289	0.2	ToneStart	Standard	88	0	0	1	n/a	CorrectRejection
249.554	1	TrialStart	Standard	89	0	0	1	n/a	CorrectRejection
250.57	0.2	ToneStart	Standard	89	0	0	1	n/a	CorrectRejection
251.837	2	TrialStart	Standard	90	0	0	1	n/a	CorrectRejection
253.836	0.2	ToneStart	Standard	90	0	0	1	n/a	CorrectRejection
255.103	1	TrialStart	Standard	91	0	0	1	n/a	CorrectRejection
256.103	0.2	ToneStart	Standard	91	0	0	1	n/a	CorrectRejection
257.37	1	TrialStart	Standard	92	0	0	1	n/a	CorrectRejection
258.386	0.2	ToneStart	Standard	92	0	0	1	n/a	CorrectRejection
259.653	2	TrialStart	Standard	93	0	0	1	n/a	CorrectRejection
261.652	0.2	ToneStart	Standard	93	0	0	1	n/a	CorrectRejection
262.919	1	TrialStart	Novel	94	0	0	1	n/a	CorrectRejection
263.92	0.2	ToneStart	Novel	94	0	0	1	n/a	CorrectRejection
265.185	2	TrialStart	Oddball	95	1	1	1	359	Hit
267.185	0.2	ToneStart	Oddball	95	1	1	1	359	Hit
268.452	2	TrialStart	Standard	96	0	0	1	n/a	CorrectRejection
270.452	0.2	ToneStart	Standard	96	0	0	1	n/a	CorrectRejection
271.718	1	TrialStart	Standard	97	0	0	1	n/a	CorrectRejection
272.718	0.2	ToneStart	Standard	97	0	0	1	n/a	CorrectRejection
273.985	2	TrialStart	Standard	98	0	0	1	n/a	CorrectRejection
275.984	0.2	ToneStart	Standard	98	0	0	1	n/a	CorrectRejection
277.251	1	TrialStart	Standard	99	0	0	1	n/a	CorrectRejection
278.253	0.2	ToneStart	Standard	99	0	0	1	n/a	CorrectRejection
279.517	1	TrialStart	Standard	100	0	0	1	n/a	CorrectRejection
280.519	0.2	ToneStart	Standard	100	0	0	1	n/a	CorrectRejection
281.784	1	TrialStart	Standard	101	0	0	1	n/a	CorrectRejection
282.784	0.2	ToneStart	Standard	101	0	0	1	n/a	CorrectRejection
284.05	1	TrialStart	Standard	102	0	0	1	n/a	CorrectRejection
285.05	0.2	ToneStart	Standard	102	0	0	1	n/a	CorrectRejection
286.317	1	TrialStart	Standard	103	0	0	1	n/a	CorrectRejection
287.318	0.2	ToneStart	Standard	103	0	0	1	n/a	CorrectRejection
288.583	1	TrialStart	Standard	104	0	0	1	n/a	CorrectRejection
289.584	0.2	ToneStart	Standard	104	0	0	1	n/a	CorrectRejection
290.85	1	TrialStart	Oddball	105	1	1	1	342	Hit
291.85	0.2	ToneStart	Oddball	105	1	1	1	342	Hit
293.116	2	TrialStart	Standard	106	0	0	1	n/a	CorrectRejection
295.116	0.2	ToneStart	Standard	106	0	0	1	n/a	CorrectRejection
296.383	1	TrialStart	Standard	107	0	0	1	n/a	CorrectRejection
297.382	0.2	ToneStart	Standard	107	0	0	1	n/a	CorrectRejection
298.649	1	TrialStart	Standard	108	0	0	1	n/a	CorrectRejection
299.649	0.2	ToneStart	Standard	108	0	0	1	n/a	CorrectRejection
300.915	1	TrialStart	Standard	109	0	0	1	n/a	CorrectRejection
301.915	0.2	ToneStart	Standard	109	0	0	1	n/a	CorrectRejection
303.182	2	TrialStart	Standard	110	0	0	1	n/a	CorrectRejection
305.182	0.2	ToneStart	Standard	110	0	0	1	n/a	CorrectRejection
306.448	1	TrialStart	Oddball	111	1	1	1	395	Hit
307.448	0.2	ToneStart	Oddball	111	1	1	1	395	Hit
308.715	1	TrialStart	Standard	112	0	0	1	n/a	CorrectRejection
309.715	0.2	ToneStart	Standard	112	0	0	1	n/a	CorrectRejection
310.981	2	TrialStart	Standard	113	0	0	1	n/a	CorrectRejection
312.981	0.2	ToneStart	Standard	113	0	0	1	n/a	CorrectRejection
314.248	2	TrialStart	Standard	114	0	0	1	n/a	CorrectRejection
316.247	0.2	ToneStart	Standard	114	0	0	1	n/a	CorrectRejection
317.514	2	TrialStart	Standard	115	0	0	1	n/a	CorrectRejection
319.514	0.2	ToneStart	Standard	115	0	0	1	n/a	CorrectRejection
320.78	1	TrialStart	Standard	116	0	0	1	n/a	CorrectRejection
321.781	0.2	ToneStart	Standard	116	0	0	1	n/a	CorrectRejection
323.047	2	TrialStart	Standard	117	0	0	1	n/a	CorrectRejection
325.046	0.2	ToneStart	Standard	117	0	0	1	n/a	CorrectRejection
326.313	1	TrialStart	Standard	118	0	0	1	n/a	CorrectRejection
327.313	0.2	ToneStart	Standard	118	0	0	1	n/a	CorrectRejection
328.579	1	TrialStart	Standard	119	0	0	1	n/a	CorrectRejection
329.579	0.2	ToneStart	Standard	119	0	0	1	n/a	CorrectRejection
330.847	1	TrialStart	Standard	120	0	0	1	n/a	CorrectRejection
331.863	0.2	ToneStart	Standard	120	0	0	1	n/a	CorrectRejection
