onset	duration	TrialEvent	ToneLabel	Trial	CRESP	RESP	ACC	RT	Code
0.036	2	TrialStart	Standard	1	0	0	1	n/a	CorrectRejection
2.037	0.2	ToneStart	Standard	1	0	0	1	n/a	CorrectRejection
3.302	2	TrialStart	Standard	2	0	0	1	n/a	CorrectRejection
5.302	0.2	ToneStart	Standard	2	0	0	1	n/a	CorrectRejection
6.569	2	TrialStart	Standard	3	0	0	1	n/a	CorrectRejection
8.568	0.2	ToneStart	Standard	3	0	0	1	n/a	CorrectRejection
9.835	2	TrialStart	Novel	4	0	0	1	n/a	CorrectRejection
11.835	0.2	ToneStart	Novel	4	0	0	1	n/a	CorrectRejection
13.101	1	TrialStart	Standard	5	0	0	1	n/a	CorrectRejection
14.101	0.2	ToneStart	Standard	5	0	0	1	n/a	CorrectRejection
15.368	1	TrialStart	Standard	6	0	0	1	n/a	CorrectRejection
16.368	0.2	ToneStart	Standard	6	0	0	1	n/a	CorrectRejection
17.634	2	TrialStart	Standard	7	0	0	1	n/a	CorrectRejection
19.634	0.2	ToneStart	Standard	7	0	0	1	n/a	CorrectRejection
20.9	1	TrialStart	Standard	8	0	0	1	n/a	CorrectRejection
21.9	0.2	ToneStart	Standard	8	0	0	1	n/a	CorrectRejection
23.167	1	TrialStart	Standard	9	0	0	1	n/a	CorrectRejection
24.167	0.2	ToneStart	Standard	9	0	0	1	n/a	CorrectRejection
25.433	1	TrialStart	Standard	10	0	0	1	n/a	CorrectRejection
26.433	0.2	ToneStart	Standard	10	0	0	1	n/a	CorrectRejection
27.7	1	TrialStart	Oddball	11	1	1	1	565	Hit
28.7	0.2	ToneStart	Oddball	11	1	1	1	565	Hit
29.966	1	TrialStart	Standard	12	0	0	1	n/a	CorrectRejection
30.966	0.2	ToneStart	Standard	12	0	0	1	n/a	CorrectRejection
32.233	2	TrialStart	Standard	13	0	0	1	n/a	CorrectRejection
34.232	0.2	ToneStart	Standard	13	0	0	1	n/a	CorrectRejection
35.499	1	TrialStart	Standard	14	0	0	1	n/a	CorrectRejection
36.499	0.2	ToneStart	Standard	14	0	0	1	n/a	CorrectRejection
37.765	2	TrialStart	Standard	15	0	0	1	n/a	CorrectRejection
39.765	0.2	ToneStart	Standard	15	0	0	1	n/a	CorrectRejection
41.032	2	TrialStart	Standard	16	0	0	1	n/a	CorrectRejection
43.031	0.2	ToneStart	Standard	16	0	0	1	n/a	CorrectRejection
44.298	1	TrialStart	Novel	17	0	0	1	n/a	CorrectRejection
45.298	0.2	ToneStart	Novel	17	0	0	1	n/a	CorrectRejection
46.564	2	TrialStart	Standard	18	0	0	1	n/a	CorrectRejection
48.565	0.2	ToneStart	Standard	18	0	0	1	n/a	CorrectRejection
49.831	2	TrialStart	Standard	19	0	0	1	n/a	CorrectRejection
51.83	0.2	ToneStart	Standard	19	0	0	1	n/a	CorrectRejection
53.097	1	TrialStart	Standard	20	0	0	1	n/a	CorrectRejection
54.097	0.2	ToneStart	Standard	20	0	0	1	n/a	CorrectRejection
55.363	2	TrialStart	Standard	21	0	0	1	n/a	CorrectRejection
57.363	0.2	ToneStart	Standard	21	0	0	1	n/a	CorrectRejection
58.613	2	TrialStart	Standard	22	0	0	1	n/a	CorrectRejection
60.613	0.2	ToneStart	Standard	22	0	0	1	n/a	CorrectRejection
61.879	1	TrialStart	Novel	23	0	0	1	n/a	CorrectRejection
62.879	0.2	ToneStart	Novel	23	0	0	1	n/a	CorrectRejection
64.146	2	TrialStart	Oddball	24	1	1	1	645	Hit
66.146	0.2	ToneStart	Oddball	24	1	1	1	645	Hit
67.412	2	TrialStart	Standard	25	0	0	1	n/a	CorrectRejection
69.412	0.2	ToneStart	Standard	25	0	0	1	n/a	CorrectRejection
70.678	2	TrialStart	Standard	26	0	0	1	n/a	CorrectRejection
72.678	0.2	ToneStart	Standard	26	0	0	1	n/a	CorrectRejection
73.928	1	TrialStart	Standard	27	0	0	1	n/a	CorrectRejection
74.929	0.2	ToneStart	Standard	27	0	0	1	n/a	CorrectRejection
76.195	2	TrialStart	Standard	28	0	0	1	n/a	CorrectRejection
78.194	0.2	ToneStart	Standard	28	0	0	1	n/a	CorrectRejection
79.444	2	TrialStart	Oddball	29	1	1	1	584	Hit
81.444	0.2	ToneStart	Oddball	29	1	1	1	584	Hit
82.694	1	TrialStart	Novel	30	0	0	1	n/a	CorrectRejection
83.694	0.2	ToneStart	Novel	30	0	0	1	n/a	CorrectRejection
84.944	1	TrialStart	Standard	31	0	0	1	n/a	CorrectRejection
85.943	0.2	ToneStart	Standard	31	0	0	1	n/a	CorrectRejection
87.193	2	TrialStart	Standard	32	0	0	1	n/a	CorrectRejection
89.193	0.2	ToneStart	Standard	32	0	0	1	n/a	CorrectRejection
90.46	1	TrialStart	Novel	33	0	0	1	n/a	CorrectRejection
91.46	0.2	ToneStart	Novel	33	0	0	1	n/a	CorrectRejection
92.709	2	TrialStart	Standard	34	0	0	1	n/a	CorrectRejection
94.709	0.2	ToneStart	Standard	34	0	0	1	n/a	CorrectRejection
95.959	2	TrialStart	Standard	35	0	0	1	n/a	CorrectRejection
97.959	0.2	ToneStart	Standard	35	0	0	1	n/a	CorrectRejection
99.209	1	TrialStart	Standard	36	0	0	1	n/a	CorrectRejection
100.209	0.2	ToneStart	Standard	36	0	0	1	n/a	CorrectRejection
101.475	1	TrialStart	Standard	37	0	0	1	n/a	CorrectRejection
102.475	0.2	ToneStart	Standard	37	0	0	1	n/a	CorrectRejection
103.742	2	TrialStart	Standard	38	0	0	1	n/a	CorrectRejection
105.741	0.2	ToneStart	Standard	38	0	0	1	n/a	CorrectRejection
106.991	2	TrialStart	Oddball	39	1	1	1	628	Hit
108.991	0.2	ToneStart	Oddball	39	1	1	1	628	Hit
110.241	2	TrialStart	Standard	40	0	0	1	n/a	CorrectRejection
112.242	0.2	ToneStart	Standard	40	0	0	1	n/a	CorrectRejection
113.507	2	TrialStart	Standard	41	0	0	1	n/a	CorrectRejection
115.507	0.2	ToneStart	Standard	41	0	0	1	n/a	CorrectRejection
116.774	1	TrialStart	Standard	42	0	0	1	n/a	CorrectRejection
117.773	0.2	ToneStart	Standard	42	0	0	1	n/a	CorrectRejection
119.04	1	TrialStart	Standard	43	0	0	1	n/a	CorrectRejection
120.04	0.2	ToneStart	Standard	43	0	0	1	n/a	CorrectRejection
121.306	1	TrialStart	Novel	44	0	0	1	n/a	CorrectRejection
122.306	0.2	ToneStart	Novel	44	0	0	1	n/a	CorrectRejection
123.573	1	TrialStart	Standard	45	0	0	1	n/a	CorrectRejection
124.573	0.2	ToneStart	Standard	45	0	0	1	n/a	CorrectRejection
125.839	2	TrialStart	Standard	46	0	0	1	n/a	CorrectRejection
127.84	0.2	ToneStart	Standard	46	0	0	1	n/a	CorrectRejection
129.106	2	TrialStart	Standard	47	0	0	1	n/a	CorrectRejection
131.105	0.2	ToneStart	Standard	47	0	0	1	n/a	CorrectRejection
132.355	1	TrialStart	Standard	48	0	0	1	n/a	CorrectRejection
133.355	0.2	ToneStart	Standard	48	0	0	1	n/a	CorrectRejection
134.638	2	TrialStart	Oddball	49	1	1	1	494	Hit
136.638	0.2	ToneStart	Oddball	49	1	1	1	494	Hit
137.905	2	TrialStart	Standard	50	0	0	1	n/a	CorrectRejection
139.904	0.2	ToneStart	Standard	50	0	0	1	n/a	CorrectRejection
141.154	2	TrialStart	Standard	51	0	0	1	n/a	CorrectRejection
143.154	0.2	ToneStart	Standard	51	0	0	1	n/a	CorrectRejection
144.404	2	TrialStart	Standard	52	0	0	1	n/a	CorrectRejection
146.404	0.2	ToneStart	Standard	52	0	0	1	n/a	CorrectRejection
147.67	2	TrialStart	Novel	53	0	0	1	n/a	CorrectRejection
149.67	0.2	ToneStart	Novel	53	0	0	1	n/a	CorrectRejection
150.937	2	TrialStart	Standard	54	0	0	1	n/a	CorrectRejection
152.936	0.2	ToneStart	Standard	54	0	0	1	n/a	CorrectRejection
154.203	1	TrialStart	Standard	55	0	0	1	n/a	CorrectRejection
155.204	0.2	ToneStart	Standard	55	0	0	1	n/a	CorrectRejection
156.469	1	TrialStart	Novel	56	0	0	1	n/a	CorrectRejection
157.469	0.2	ToneStart	Novel	56	0	0	1	n/a	CorrectRejection
158.736	2	TrialStart	Standard	57	0	0	1	n/a	CorrectRejection
160.735	0.2	ToneStart	Standard	57	0	0	1	n/a	CorrectRejection
162.002	1	TrialStart	Standard	58	0	0	1	n/a	CorrectRejection
163.003	0.2	ToneStart	Standard	58	0	0	1	n/a	CorrectRejection
164.268	1	TrialStart	Standard	59	0	0	1	n/a	CorrectRejection
165.268	0.2	ToneStart	Standard	59	0	0	1	n/a	CorrectRejection
166.535	1	TrialStart	Oddball	60	1	1	1	521	Hit
167.535	0.2	ToneStart	Oddball	60	1	1	1	521	Hit
168.801	1	TrialStart	Standard	61	0	0	1	n/a	CorrectRejection
169.801	0.2	ToneStart	Standard	61	0	0	1	n/a	CorrectRejection
171.068	2	TrialStart	Standard	62	0	0	1	n/a	CorrectRejection
173.067	0.2	ToneStart	Standard	62	0	0	1	n/a	CorrectRejection
174.334	2	TrialStart	Standard	63	0	0	1	n/a	CorrectRejection
176.334	0.2	ToneStart	Standard	63	0	0	1	n/a	CorrectRejection
177.6	1	TrialStart	Standard	64	0	0	1	n/a	CorrectRejection
178.6	0.2	ToneStart	Standard	64	0	0	1	n/a	CorrectRejection
179.867	1	TrialStart	Novel	65	0	0	1	n/a	CorrectRejection
180.867	0.2	ToneStart	Novel	65	0	0	1	n/a	CorrectRejection
182.133	2	TrialStart	Standard	66	0	0	1	n/a	CorrectRejection
184.133	0.2	ToneStart	Standard	66	0	0	1	n/a	CorrectRejection
185.4	1	TrialStart	Standard	67	0	0	1	n/a	CorrectRejection
186.399	0.2	ToneStart	Standard	67	0	0	1	n/a	CorrectRejection
187.666	2	TrialStart	Oddball	68	1	1	1	663	Hit
189.666	0.2	ToneStart	Oddball	68	1	1	1	663	Hit
190.932	1	TrialStart	Standard	69	0	0	1	n/a	CorrectRejection
191.933	0.2	ToneStart	Standard	69	0	0	1	n/a	CorrectRejection
193.199	1	TrialStart	Standard	70	0	0	1	n/a	CorrectRejection
194.199	0.2	ToneStart	Standard	70	0	0	1	n/a	CorrectRejection
195.465	2	TrialStart	Standard	71	0	0	1	n/a	CorrectRejection
197.465	0.2	ToneStart	Standard	71	0	0	1	n/a	CorrectRejection
198.731	2	TrialStart	Standard	72	0	0	1	n/a	CorrectRejection
200.731	0.2	ToneStart	Standard	72	0	0	1	n/a	CorrectRejection
201.998	1	TrialStart	Standard	73	0	0	1	n/a	CorrectRejection
202.998	0.2	ToneStart	Standard	73	0	0	1	n/a	CorrectRejection
204.264	2	TrialStart	Standard	74	0	0	1	n/a	CorrectRejection
206.264	0.2	ToneStart	Standard	74	0	0	1	n/a	CorrectRejection
207.547	2	TrialStart	Oddball	75	1	1	1	685	Hit
209.547	0.2	ToneStart	Oddball	75	1	1	1	685	Hit
210.813	2	TrialStart	Standard	76	0	0	1	n/a	CorrectRejection
212.813	0.2	ToneStart	Standard	76	0	0	1	n/a	CorrectRejection
214.08	1	TrialStart	Standard	77	0	0	1	n/a	CorrectRejection
215.08	0.2	ToneStart	Standard	77	0	0	1	n/a	CorrectRejection
216.346	2	TrialStart	Standard	78	0	0	1	n/a	CorrectRejection
218.346	0.2	ToneStart	Standard	78	0	0	1	n/a	CorrectRejection
219.613	1	TrialStart	Novel	79	0	0	1	n/a	CorrectRejection
220.612	0.2	ToneStart	Novel	79	0	0	1	n/a	CorrectRejection
221.879	2	TrialStart	Standard	80	0	0	1	n/a	CorrectRejection
223.879	0.2	ToneStart	Standard	80	0	0	1	n/a	CorrectRejection
225.145	2	TrialStart	Standard	81	0	0	1	n/a	CorrectRejection
227.145	0.2	ToneStart	Standard	81	0	0	1	n/a	CorrectRejection
228.412	2	TrialStart	Oddball	82	1	1	1	542	Hit
230.411	0.2	ToneStart	Oddball	82	1	1	1	542	Hit
231.661	2	TrialStart	Standard	83	0	0	1	n/a	CorrectRejection
233.661	0.2	ToneStart	Standard	83	0	0	1	n/a	CorrectRejection
234.928	2	TrialStart	Standard	84	0	0	1	n/a	CorrectRejection
236.927	0.2	ToneStart	Standard	84	0	0	1	n/a	CorrectRejection
238.194	2	TrialStart	Novel	85	0	0	1	n/a	CorrectRejection
240.194	0.2	ToneStart	Novel	85	0	0	1	n/a	CorrectRejection
241.46	1	TrialStart	Standard	86	0	0	1	n/a	CorrectRejection
242.461	0.2	ToneStart	Standard	86	0	0	1	n/a	CorrectRejection
243.727	2	TrialStart	Standard	87	0	0	1	n/a	CorrectRejection
245.726	0.2	ToneStart	Standard	87	0	0	1	n/a	CorrectRejection
246.993	1	TrialStart	Standard	88	0	0	1	n/a	CorrectRejection
247.994	0.2	ToneStart	Standard	88	0	0	1	n/a	CorrectRejection
249.259	1	TrialStart	Standard	89	0	0	1	n/a	CorrectRejection
250.259	0.2	ToneStart	Standard	89	0	0	1	n/a	CorrectRejection
251.526	2	TrialStart	Standard	90	0	0	1	n/a	CorrectRejection
253.526	0.2	ToneStart	Standard	90	0	0	1	n/a	CorrectRejection
254.792	1	TrialStart	Standard	91	0	0	1	n/a	CorrectRejection
255.792	0.2	ToneStart	Standard	91	0	0	1	n/a	CorrectRejection
257.059	1	TrialStart	Standard	92	0	0	1	n/a	CorrectRejection
258.058	0.2	ToneStart	Standard	92	0	0	1	n/a	CorrectRejection
259.325	2	TrialStart	Standard	93	0	0	1	n/a	CorrectRejection
261.325	0.2	ToneStart	Standard	93	0	0	1	n/a	CorrectRejection
262.591	1	TrialStart	Novel	94	0	0	1	n/a	CorrectRejection
263.591	0.2	ToneStart	Novel	94	0	0	1	n/a	CorrectRejection
264.841	2	TrialStart	Oddball	95	1	1	1	593	Hit
266.841	0.2	ToneStart	Oddball	95	1	1	1	593	Hit
268.107	2	TrialStart	Standard	96	0	0	1	n/a	CorrectRejection
270.107	0.2	ToneStart	Standard	96	0	0	1	n/a	CorrectRejection
271.374	1	TrialStart	Standard	97	0	0	1	n/a	CorrectRejection
272.374	0.2	ToneStart	Standard	97	0	0	1	n/a	CorrectRejection
273.64	2	TrialStart	Standard	98	0	0	1	n/a	CorrectRejection
275.64	0.2	ToneStart	Standard	98	0	0	1	n/a	CorrectRejection
276.906	1	TrialStart	Standard	99	0	0	1	n/a	CorrectRejection
277.906	0.2	ToneStart	Standard	99	0	0	1	n/a	CorrectRejection
279.173	1	TrialStart	Standard	100	0	0	1	n/a	CorrectRejection
280.173	0.2	ToneStart	Standard	100	0	0	1	n/a	CorrectRejection
281.439	1	TrialStart	Standard	101	0	0	1	n/a	CorrectRejection
282.439	0.2	ToneStart	Standard	101	0	0	1	n/a	CorrectRejection
283.706	1	TrialStart	Standard	102	0	0	1	n/a	CorrectRejection
284.706	0.2	ToneStart	Standard	102	0	0	1	n/a	CorrectRejection
285.972	1	TrialStart	Standard	103	0	0	1	n/a	CorrectRejection
286.972	0.2	ToneStart	Standard	103	0	0	1	n/a	CorrectRejection
288.239	1	TrialStart	Standard	104	0	0	1	n/a	CorrectRejection
289.238	0.2	ToneStart	Standard	104	0	0	1	n/a	CorrectRejection
290.488	1	TrialStart	Oddball	105	1	1	1	637	Hit
291.488	0.2	ToneStart	Oddball	105	1	1	1	637	Hit
292.755	2	TrialStart	Standard	106	0	0	1	n/a	CorrectRejection
294.754	0.2	ToneStart	Standard	106	0	0	1	n/a	CorrectRejection
296.004	1	TrialStart	Standard	107	0	0	1	n/a	CorrectRejection
297.005	0.2	ToneStart	Standard	107	0	0	1	n/a	CorrectRejection
298.271	1	TrialStart	Standard	108	0	0	1	n/a	CorrectRejection
299.271	0.2	ToneStart	Standard	108	0	0	1	n/a	CorrectRejection
300.537	1	TrialStart	Standard	109	0	0	1	n/a	CorrectRejection
301.537	0.2	ToneStart	Standard	109	0	0	1	n/a	CorrectRejection
302.804	2	TrialStart	Standard	110	0	0	1	n/a	CorrectRejection
304.803	0.2	ToneStart	Standard	110	0	0	1	n/a	CorrectRejection
306.053	1	TrialStart	Oddball	111	1	1	1	580	Hit
307.053	0.2	ToneStart	Oddball	111	1	1	1	580	Hit
308.303	1	TrialStart	Standard	112	0	0	1	n/a	CorrectRejection
309.304	0.2	ToneStart	Standard	112	0	0	1	n/a	CorrectRejection
310.569	2	TrialStart	Standard	113	0	0	1	n/a	CorrectRejection
312.569	0.2	ToneStart	Standard	113	0	0	1	n/a	CorrectRejection
313.836	2	TrialStart	Standard	114	0	0	1	n/a	CorrectRejection
315.836	0.2	ToneStart	Standard	114	0	0	1	n/a	CorrectRejection
317.102	2	TrialStart	Standard	115	0	0	1	n/a	CorrectRejection
319.102	0.2	ToneStart	Standard	115	0	0	1	n/a	CorrectRejection
320.368	1	TrialStart	Standard	116	0	0	1	n/a	CorrectRejection
321.368	0.2	ToneStart	Standard	116	0	0	1	n/a	CorrectRejection
322.618	2	TrialStart	Standard	117	0	0	1	n/a	CorrectRejection
324.618	0.2	ToneStart	Standard	117	0	0	1	n/a	CorrectRejection
325.868	1	TrialStart	Standard	118	0	0	1	n/a	CorrectRejection
326.868	0.2	ToneStart	Standard	118	0	0	1	n/a	CorrectRejection
328.134	1	TrialStart	Standard	119	0	0	1	n/a	CorrectRejection
329.134	0.2	ToneStart	Standard	119	0	0	1	n/a	CorrectRejection
330.384	1	TrialStart	Standard	120	0	0	1	n/a	CorrectRejection
331.384	0.2	ToneStart	Standard	120	0	0	1	n/a	CorrectRejection
