onset	duration	TrialEvent	ToneLabel	Trial	CRESP	RESP	ACC	RT	Code
0.04	2	TrialStart	Standard	1	0	0	1	n/a	CorrectRejection
2.04	0.2	ToneStart	Standard	1	0	0	1	n/a	CorrectRejection
3.306	2	TrialStart	Standard	2	0	0	1	n/a	CorrectRejection
5.306	0.2	ToneStart	Standard	2	0	0	1	n/a	CorrectRejection
6.572	2	TrialStart	Standard	3	0	0	1	n/a	CorrectRejection
8.572	0.2	ToneStart	Standard	3	0	0	1	n/a	CorrectRejection
9.839	2	TrialStart	Novel	4	0	0	1	n/a	CorrectRejection
11.838	0.2	ToneStart	Novel	4	0	0	1	n/a	CorrectRejection
13.105	1	TrialStart	Standard	5	0	0	1	n/a	CorrectRejection
14.106	0.2	ToneStart	Standard	5	0	0	1	n/a	CorrectRejection
15.371	1	TrialStart	Standard	6	0	0	1	n/a	CorrectRejection
16.371	0.2	ToneStart	Standard	6	0	0	1	n/a	CorrectRejection
17.638	2	TrialStart	Standard	7	0	0	1	n/a	CorrectRejection
19.638	0.2	ToneStart	Standard	7	0	0	1	n/a	CorrectRejection
20.904	1	TrialStart	Standard	8	0	0	1	n/a	CorrectRejection
21.904	0.2	ToneStart	Standard	8	0	0	1	n/a	CorrectRejection
23.171	1	TrialStart	Standard	9	0	0	1	n/a	CorrectRejection
24.171	0.2	ToneStart	Standard	9	0	0	1	n/a	CorrectRejection
25.437	1	TrialStart	Standard	10	0	0	1	n/a	CorrectRejection
26.438	0.2	ToneStart	Standard	10	0	0	1	n/a	CorrectRejection
27.703	1	TrialStart	Oddball	11	1	1	1	445	Hit
28.703	0.2	ToneStart	Oddball	11	1	1	1	445	Hit
29.97	1	TrialStart	Standard	12	0	0	1	n/a	CorrectRejection
30.97	0.2	ToneStart	Standard	12	0	0	1	n/a	CorrectRejection
32.236	2	TrialStart	Standard	13	0	0	1	n/a	CorrectRejection
34.236	0.2	ToneStart	Standard	13	0	0	1	n/a	CorrectRejection
35.503	1	TrialStart	Standard	14	0	0	1	n/a	CorrectRejection
36.503	0.2	ToneStart	Standard	14	0	0	1	n/a	CorrectRejection
37.769	2	TrialStart	Standard	15	0	0	1	n/a	CorrectRejection
39.769	0.2	ToneStart	Standard	15	0	0	1	n/a	CorrectRejection
41.035	2	TrialStart	Standard	16	0	0	1	n/a	CorrectRejection
43.035	0.2	ToneStart	Standard	16	0	0	1	n/a	CorrectRejection
44.302	1	TrialStart	Novel	17	0	0	1	n/a	CorrectRejection
45.303	0.2	ToneStart	Novel	17	0	0	1	n/a	CorrectRejection
46.568	2	TrialStart	Standard	18	0	0	1	n/a	CorrectRejection
48.568	0.2	ToneStart	Standard	18	0	0	1	n/a	CorrectRejection
49.835	2	TrialStart	Standard	19	0	0	1	n/a	CorrectRejection
51.834	0.2	ToneStart	Standard	19	0	0	1	n/a	CorrectRejection
53.101	1	TrialStart	Standard	20	0	0	1	n/a	CorrectRejection
54.101	0.2	ToneStart	Standard	20	0	0	1	n/a	CorrectRejection
55.367	2	TrialStart	Standard	21	0	0	1	n/a	CorrectRejection
57.367	0.2	ToneStart	Standard	21	0	0	1	n/a	CorrectRejection
58.634	2	TrialStart	Standard	22	0	0	1	n/a	CorrectRejection
60.633	0.2	ToneStart	Standard	22	0	0	1	n/a	CorrectRejection
61.9	1	TrialStart	Novel	23	0	0	1	n/a	CorrectRejection
62.9	0.2	ToneStart	Novel	23	0	0	1	n/a	CorrectRejection
64.166	2	TrialStart	Oddball	24	1	1	1	770	Hit
66.166	0.2	ToneStart	Oddball	24	1	1	1	770	Hit
67.433	2	TrialStart	Standard	25	0	0	1	n/a	CorrectRejection
69.433	0.2	ToneStart	Standard	25	0	0	1	n/a	CorrectRejection
70.699	2	TrialStart	Standard	26	0	0	1	n/a	CorrectRejection
72.7	0.2	ToneStart	Standard	26	0	0	1	n/a	CorrectRejection
73.965	1	TrialStart	Standard	27	0	0	1	n/a	CorrectRejection
74.966	0.2	ToneStart	Standard	27	0	0	1	n/a	CorrectRejection
76.232	2	TrialStart	Standard	28	0	0	1	n/a	CorrectRejection
78.232	0.2	ToneStart	Standard	28	0	0	1	n/a	CorrectRejection
79.498	2	TrialStart	Oddball	29	1	1	1	646	Hit
81.498	0.2	ToneStart	Oddball	29	1	1	1	646	Hit
82.764	1	TrialStart	Novel	30	0	0	1	n/a	CorrectRejection
83.765	0.2	ToneStart	Novel	30	0	0	1	n/a	CorrectRejection
85.031	1	TrialStart	Standard	31	0	0	1	n/a	CorrectRejection
86.031	0.2	ToneStart	Standard	31	0	0	1	n/a	CorrectRejection
87.297	2	TrialStart	Standard	32	0	0	1	n/a	CorrectRejection
89.297	0.2	ToneStart	Standard	32	0	0	1	n/a	CorrectRejection
90.564	1	TrialStart	Novel	33	0	0	1	n/a	CorrectRejection
91.564	0.2	ToneStart	Novel	33	0	0	1	n/a	CorrectRejection
92.83	2	TrialStart	Standard	34	0	0	1	n/a	CorrectRejection
94.83	0.2	ToneStart	Standard	34	0	0	1	n/a	CorrectRejection
96.096	2	TrialStart	Standard	35	0	0	1	n/a	CorrectRejection
98.096	0.2	ToneStart	Standard	35	0	0	1	n/a	CorrectRejection
99.363	1	TrialStart	Standard	36	0	0	1	n/a	CorrectRejection
100.363	0.2	ToneStart	Standard	36	0	0	1	n/a	CorrectRejection
101.629	1	TrialStart	Standard	37	0	0	1	n/a	CorrectRejection
102.629	0.2	ToneStart	Standard	37	0	0	1	n/a	CorrectRejection
103.896	2	TrialStart	Standard	38	0	0	1	n/a	CorrectRejection
105.895	0.2	ToneStart	Standard	38	0	0	1	n/a	CorrectRejection
107.162	2	TrialStart	Oddball	39	1	1	1	530	Hit
109.162	0.2	ToneStart	Oddball	39	1	1	1	530	Hit
110.428	2	TrialStart	Standard	40	0	0	1	n/a	CorrectRejection
112.428	0.2	ToneStart	Standard	40	0	0	1	n/a	CorrectRejection
113.678	2	TrialStart	Standard	41	0	0	1	n/a	CorrectRejection
115.678	0.2	ToneStart	Standard	41	0	0	1	n/a	CorrectRejection
116.928	1	TrialStart	Standard	42	0	0	1	n/a	CorrectRejection
117.928	0.2	ToneStart	Standard	42	0	0	1	n/a	CorrectRejection
119.194	1	TrialStart	Standard	43	0	0	1	n/a	CorrectRejection
120.194	0.2	ToneStart	Standard	43	0	0	1	n/a	CorrectRejection
121.461	1	TrialStart	Novel	44	0	0	1	n/a	CorrectRejection
122.46	0.2	ToneStart	Novel	44	0	0	1	n/a	CorrectRejection
123.71	1	TrialStart	Standard	45	0	0	1	n/a	CorrectRejection
124.71	0.2	ToneStart	Standard	45	0	0	1	n/a	CorrectRejection
125.977	2	TrialStart	Standard	46	0	0	1	n/a	CorrectRejection
127.976	0.2	ToneStart	Standard	46	0	0	1	n/a	CorrectRejection
129.243	2	TrialStart	Standard	47	0	0	1	n/a	CorrectRejection
131.243	0.2	ToneStart	Standard	47	0	0	1	n/a	CorrectRejection
132.509	1	TrialStart	Standard	48	0	0	1	n/a	CorrectRejection
133.509	0.2	ToneStart	Standard	48	0	0	1	n/a	CorrectRejection
134.776	2	TrialStart	Oddball	49	1	1	1	636	Hit
136.776	0.2	ToneStart	Oddball	49	1	1	1	636	Hit
138.042	2	TrialStart	Standard	50	0	0	1	n/a	CorrectRejection
140.042	0.2	ToneStart	Standard	50	0	0	1	n/a	CorrectRejection
141.308	2	TrialStart	Standard	51	0	0	1	n/a	CorrectRejection
143.308	0.2	ToneStart	Standard	51	0	0	1	n/a	CorrectRejection
144.575	2	TrialStart	Standard	52	0	0	1	n/a	CorrectRejection
146.575	0.2	ToneStart	Standard	52	0	0	1	n/a	CorrectRejection
147.841	2	TrialStart	Novel	53	0	0	1	n/a	CorrectRejection
149.841	0.2	ToneStart	Novel	53	0	0	1	n/a	CorrectRejection
151.107	2	TrialStart	Standard	54	0	0	1	n/a	CorrectRejection
153.107	0.2	ToneStart	Standard	54	0	0	1	n/a	CorrectRejection
154.374	1	TrialStart	Standard	55	0	0	1	n/a	CorrectRejection
155.374	0.2	ToneStart	Standard	55	0	0	1	n/a	CorrectRejection
156.64	1	TrialStart	Novel	56	0	0	1	n/a	CorrectRejection
157.641	0.2	ToneStart	Novel	56	0	0	1	n/a	CorrectRejection
158.907	2	TrialStart	Standard	57	0	0	1	n/a	CorrectRejection
160.906	0.2	ToneStart	Standard	57	0	0	1	n/a	CorrectRejection
162.173	1	TrialStart	Standard	58	0	0	1	n/a	CorrectRejection
163.173	0.2	ToneStart	Standard	58	0	0	1	n/a	CorrectRejection
164.439	1	TrialStart	Standard	59	0	0	1	n/a	CorrectRejection
165.44	0.2	ToneStart	Standard	59	0	0	1	n/a	CorrectRejection
166.706	1	TrialStart	Oddball	60	1	1	1	580	Hit
167.706	0.2	ToneStart	Oddball	60	1	1	1	580	Hit
168.972	1	TrialStart	Standard	61	0	0	1	n/a	CorrectRejection
169.972	0.2	ToneStart	Standard	61	0	0	1	n/a	CorrectRejection
171.239	2	TrialStart	Standard	62	0	0	1	n/a	CorrectRejection
173.239	0.2	ToneStart	Standard	62	0	0	1	n/a	CorrectRejection
174.505	2	TrialStart	Standard	63	0	0	1	n/a	CorrectRejection
176.505	0.2	ToneStart	Standard	63	0	0	1	n/a	CorrectRejection
177.771	1	TrialStart	Standard	64	0	0	1	n/a	CorrectRejection
178.771	0.2	ToneStart	Standard	64	0	0	1	n/a	CorrectRejection
180.038	1	TrialStart	Novel	65	0	0	1	n/a	CorrectRejection
181.038	0.2	ToneStart	Novel	65	0	0	1	n/a	CorrectRejection
182.304	2	TrialStart	Standard	66	0	0	1	n/a	CorrectRejection
184.304	0.2	ToneStart	Standard	66	0	0	1	n/a	CorrectRejection
185.571	1	TrialStart	Standard	67	0	0	1	n/a	CorrectRejection
186.57	0.2	ToneStart	Standard	67	0	0	1	n/a	CorrectRejection
187.837	2	TrialStart	Oddball	68	1	1	1	602	Hit
189.837	0.2	ToneStart	Oddball	68	1	1	1	602	Hit
191.103	1	TrialStart	Standard	69	0	0	1	n/a	CorrectRejection
192.103	0.2	ToneStart	Standard	69	0	0	1	n/a	CorrectRejection
193.37	1	TrialStart	Standard	70	0	0	1	n/a	CorrectRejection
194.37	0.2	ToneStart	Standard	70	0	0	1	n/a	CorrectRejection
195.636	2	TrialStart	Standard	71	0	0	1	n/a	CorrectRejection
197.636	0.2	ToneStart	Standard	71	0	0	1	n/a	CorrectRejection
198.903	2	TrialStart	Standard	72	0	0	1	n/a	CorrectRejection
200.902	0.2	ToneStart	Standard	72	0	0	1	n/a	CorrectRejection
202.169	1	TrialStart	Standard	73	0	0	1	n/a	CorrectRejection
203.169	0.2	ToneStart	Standard	73	0	0	1	n/a	CorrectRejection
204.435	2	TrialStart	Standard	74	0	0	1	n/a	CorrectRejection
206.435	0.2	ToneStart	Standard	74	0	0	1	n/a	CorrectRejection
207.702	2	TrialStart	Oddball	75	1	1	1	823	Hit
209.701	0.2	ToneStart	Oddball	75	1	1	1	823	Hit
210.968	2	TrialStart	Standard	76	0	0	1	n/a	CorrectRejection
212.968	0.2	ToneStart	Standard	76	0	0	1	n/a	CorrectRejection
214.234	1	TrialStart	Standard	77	0	0	1	n/a	CorrectRejection
215.235	0.2	ToneStart	Standard	77	0	0	1	n/a	CorrectRejection
216.501	2	TrialStart	Standard	78	0	0	1	n/a	CorrectRejection
218.501	0.2	ToneStart	Standard	78	0	0	1	n/a	CorrectRejection
219.767	1	TrialStart	Novel	79	0	0	1	n/a	CorrectRejection
220.767	0.2	ToneStart	Novel	79	0	0	1	n/a	CorrectRejection
222.034	2	TrialStart	Standard	80	0	0	1	n/a	CorrectRejection
224.033	0.2	ToneStart	Standard	80	0	0	1	n/a	CorrectRejection
225.3	2	TrialStart	Standard	81	0	0	1	n/a	CorrectRejection
227.3	0.2	ToneStart	Standard	81	0	0	1	n/a	CorrectRejection
228.566	2	TrialStart	Oddball	82	1	1	1	658	Hit
230.566	0.2	ToneStart	Oddball	82	1	1	1	658	Hit
231.833	2	TrialStart	Standard	83	0	0	1	n/a	CorrectRejection
233.832	0.2	ToneStart	Standard	83	0	0	1	n/a	CorrectRejection
235.099	2	TrialStart	Standard	84	0	0	1	n/a	CorrectRejection
237.099	0.2	ToneStart	Standard	84	0	0	1	n/a	CorrectRejection
238.365	2	TrialStart	Novel	85	0	0	1	n/a	CorrectRejection
240.366	0.2	ToneStart	Novel	85	0	0	1	n/a	CorrectRejection
241.632	1	TrialStart	Standard	86	0	0	1	n/a	CorrectRejection
242.631	0.2	ToneStart	Standard	86	0	0	1	n/a	CorrectRejection
243.898	2	TrialStart	Standard	87	0	0	1	n/a	CorrectRejection
245.898	0.2	ToneStart	Standard	87	0	0	1	n/a	CorrectRejection
247.164	1	TrialStart	Standard	88	0	0	1	n/a	CorrectRejection
248.165	0.2	ToneStart	Standard	88	0	0	1	n/a	CorrectRejection
249.431	1	TrialStart	Standard	89	0	0	1	n/a	CorrectRejection
250.431	0.2	ToneStart	Standard	89	0	0	1	n/a	CorrectRejection
251.697	2	TrialStart	Standard	90	0	0	1	n/a	CorrectRejection
253.697	0.2	ToneStart	Standard	90	0	0	1	n/a	CorrectRejection
254.963	1	TrialStart	Standard	91	0	0	1	n/a	CorrectRejection
255.963	0.2	ToneStart	Standard	91	0	0	1	n/a	CorrectRejection
257.23	1	TrialStart	Standard	92	0	0	1	n/a	CorrectRejection
258.23	0.2	ToneStart	Standard	92	0	0	1	n/a	CorrectRejection
259.496	2	TrialStart	Standard	93	0	0	1	n/a	CorrectRejection
261.496	0.2	ToneStart	Standard	93	0	0	1	n/a	CorrectRejection
262.763	1	TrialStart	Novel	94	0	0	1	n/a	CorrectRejection
263.763	0.2	ToneStart	Novel	94	0	0	1	n/a	CorrectRejection
265.029	2	TrialStart	Oddball	95	1	1	1	450	Hit
267.029	0.2	ToneStart	Oddball	95	1	1	1	450	Hit
268.295	2	TrialStart	Standard	96	0	0	1	n/a	CorrectRejection
270.295	0.2	ToneStart	Standard	96	0	0	1	n/a	CorrectRejection
271.562	1	TrialStart	Standard	97	0	0	1	n/a	CorrectRejection
272.562	0.2	ToneStart	Standard	97	0	0	1	n/a	CorrectRejection
273.828	2	TrialStart	Standard	98	0	0	1	n/a	CorrectRejection
275.828	0.2	ToneStart	Standard	98	0	0	1	n/a	CorrectRejection
277.095	1	TrialStart	Standard	99	0	0	1	n/a	CorrectRejection
278.094	0.2	ToneStart	Standard	99	0	0	1	n/a	CorrectRejection
279.361	1	TrialStart	Standard	100	0	0	1	n/a	CorrectRejection
280.361	0.2	ToneStart	Standard	100	0	0	1	n/a	CorrectRejection
281.628	1	TrialStart	Standard	101	0	0	1	n/a	CorrectRejection
282.627	0.2	ToneStart	Standard	101	0	0	1	n/a	CorrectRejection
283.894	1	TrialStart	Standard	102	0	0	1	n/a	CorrectRejection
284.895	0.2	ToneStart	Standard	102	0	0	1	n/a	CorrectRejection
286.16	1	TrialStart	Standard	103	0	0	1	n/a	CorrectRejection
287.161	0.2	ToneStart	Standard	103	0	0	1	n/a	CorrectRejection
288.427	1	TrialStart	Standard	104	0	0	1	n/a	CorrectRejection
289.428	0.2	ToneStart	Standard	104	0	0	1	n/a	CorrectRejection
290.693	1	TrialStart	Oddball	105	1	1	1	565	Hit
291.693	0.2	ToneStart	Oddball	105	1	1	1	565	Hit
292.96	2	TrialStart	Standard	106	0	0	1	n/a	CorrectRejection
294.959	0.2	ToneStart	Standard	106	0	0	1	n/a	CorrectRejection
296.226	1	TrialStart	Standard	107	0	0	1	n/a	CorrectRejection
297.228	0.2	ToneStart	Standard	107	0	0	1	n/a	CorrectRejection
298.492	1	TrialStart	Standard	108	0	0	1	n/a	CorrectRejection
299.492	0.2	ToneStart	Standard	108	0	0	1	n/a	CorrectRejection
300.759	1	TrialStart	Standard	109	0	0	1	n/a	CorrectRejection
301.759	0.2	ToneStart	Standard	109	0	0	1	n/a	CorrectRejection
303.025	2	TrialStart	Standard	110	0	0	1	n/a	CorrectRejection
305.025	0.2	ToneStart	Standard	110	0	0	1	n/a	CorrectRejection
306.292	1	TrialStart	Oddball	111	1	1	1	488	Hit
307.291	0.2	ToneStart	Oddball	111	1	1	1	488	Hit
308.558	1	TrialStart	Standard	112	0	0	1	n/a	CorrectRejection
309.558	0.2	ToneStart	Standard	112	0	0	1	n/a	CorrectRejection
310.824	2	TrialStart	Standard	113	0	0	1	n/a	CorrectRejection
312.824	0.2	ToneStart	Standard	113	0	0	1	n/a	CorrectRejection
314.091	2	TrialStart	Standard	114	0	0	1	n/a	CorrectRejection
316.091	0.2	ToneStart	Standard	114	0	0	1	n/a	CorrectRejection
317.357	2	TrialStart	Standard	115	0	0	1	n/a	CorrectRejection
319.357	0.2	ToneStart	Standard	115	0	0	1	n/a	CorrectRejection
320.623	1	TrialStart	Standard	116	0	0	1	n/a	CorrectRejection
321.623	0.2	ToneStart	Standard	116	0	0	1	n/a	CorrectRejection
322.89	2	TrialStart	Standard	117	0	0	1	n/a	CorrectRejection
324.89	0.2	ToneStart	Standard	117	0	0	1	n/a	CorrectRejection
326.156	1	TrialStart	Standard	118	0	0	1	n/a	CorrectRejection
327.157	0.2	ToneStart	Standard	118	0	0	1	n/a	CorrectRejection
328.423	1	TrialStart	Standard	119	0	0	1	n/a	CorrectRejection
329.423	0.2	ToneStart	Standard	119	0	0	1	n/a	CorrectRejection
330.689	1	TrialStart	Standard	120	0	0	1	n/a	CorrectRejection
331.689	0.2	ToneStart	Standard	120	0	0	1	n/a	CorrectRejection
