onset	duration	TrialEvent	ToneLabel	Trial	CRESP	RESP	ACC	RT	Code
0.053	2	TrialStart	Standard	1	0	0	1	n/a	CorrectRejection
2.054	0.2	ToneStart	Standard	1	0	0	1	n/a	CorrectRejection
3.319	2	TrialStart	Standard	2	0	0	1	n/a	CorrectRejection
5.319	0.2	ToneStart	Standard	2	0	0	1	n/a	CorrectRejection
6.586	2	TrialStart	Standard	3	0	0	1	n/a	CorrectRejection
8.586	0.2	ToneStart	Standard	3	0	0	1	n/a	CorrectRejection
9.853	2	TrialStart	Novel	4	0	0	1	n/a	CorrectRejection
11.852	0.2	ToneStart	Novel	4	0	0	1	n/a	CorrectRejection
13.12	1	TrialStart	Standard	5	0	0	1	n/a	CorrectRejection
14.118	0.2	ToneStart	Standard	5	0	0	1	n/a	CorrectRejection
15.368	1	TrialStart	Standard	6	0	0	1	n/a	CorrectRejection
16.368	0.2	ToneStart	Standard	6	0	0	1	n/a	CorrectRejection
17.635	2	TrialStart	Standard	7	0	0	1	n/a	CorrectRejection
19.634	0.2	ToneStart	Standard	7	0	0	1	n/a	CorrectRejection
20.901	1	TrialStart	Standard	8	0	0	1	n/a	CorrectRejection
21.902	0.2	ToneStart	Standard	8	0	0	1	n/a	CorrectRejection
23.167	1	TrialStart	Standard	9	0	0	1	n/a	CorrectRejection
24.167	0.2	ToneStart	Standard	9	0	0	1	n/a	CorrectRejection
25.434	1	TrialStart	Standard	10	0	0	1	n/a	CorrectRejection
26.434	0.2	ToneStart	Standard	10	0	0	1	n/a	CorrectRejection
27.684	1	TrialStart	Oddball	11	1	1	1	652	Hit
28.683	0.2	ToneStart	Oddball	11	1	1	1	652	Hit
29.933	1	TrialStart	Standard	12	0	0	1	n/a	CorrectRejection
30.938	0.2	ToneStart	Standard	12	0	0	1	n/a	CorrectRejection
32.2	2	TrialStart	Standard	13	0	0	1	n/a	CorrectRejection
34.2	0.2	ToneStart	Standard	13	0	0	1	n/a	CorrectRejection
35.466	1	TrialStart	Standard	14	0	0	1	n/a	CorrectRejection
36.467	0.2	ToneStart	Standard	14	0	0	1	n/a	CorrectRejection
37.733	2	TrialStart	Standard	15	0	0	1	n/a	CorrectRejection
39.732	0.2	ToneStart	Standard	15	0	0	1	n/a	CorrectRejection
40.999	2	TrialStart	Standard	16	0	0	1	n/a	CorrectRejection
43	0.2	ToneStart	Standard	16	0	0	1	n/a	CorrectRejection
44.265	1	TrialStart	Novel	17	0	0	1	n/a	CorrectRejection
45.265	0.2	ToneStart	Novel	17	0	0	1	n/a	CorrectRejection
46.532	2	TrialStart	Standard	18	0	0	1	n/a	CorrectRejection
48.531	0.2	ToneStart	Standard	18	0	0	1	n/a	CorrectRejection
49.798	2	TrialStart	Standard	19	0	0	1	n/a	CorrectRejection
51.798	0.2	ToneStart	Standard	19	0	0	1	n/a	CorrectRejection
53.064	1	TrialStart	Standard	20	0	0	1	n/a	CorrectRejection
54.064	0.2	ToneStart	Standard	20	0	0	1	n/a	CorrectRejection
55.331	2	TrialStart	Standard	21	0	0	1	n/a	CorrectRejection
57.331	0.2	ToneStart	Standard	21	0	0	1	n/a	CorrectRejection
58.597	2	TrialStart	Standard	22	0	0	1	n/a	CorrectRejection
60.598	0.2	ToneStart	Standard	22	0	0	1	n/a	CorrectRejection
61.863	1	TrialStart	Novel	23	0	0	1	n/a	CorrectRejection
62.863	0.2	ToneStart	Novel	23	0	0	1	n/a	CorrectRejection
64.13	2	TrialStart	Oddball	24	1	1	1	969	Hit
66.13	0.2	ToneStart	Oddball	24	1	1	1	969	Hit
67.396	2	TrialStart	Standard	25	0	0	1	n/a	CorrectRejection
69.396	0.2	ToneStart	Standard	25	0	0	1	n/a	CorrectRejection
70.663	2	TrialStart	Standard	26	0	0	1	n/a	CorrectRejection
72.662	0.2	ToneStart	Standard	26	0	0	1	n/a	CorrectRejection
73.929	1	TrialStart	Standard	27	0	0	1	n/a	CorrectRejection
74.929	0.2	ToneStart	Standard	27	0	0	1	n/a	CorrectRejection
76.195	2	TrialStart	Standard	28	0	0	1	n/a	CorrectRejection
78.195	0.2	ToneStart	Standard	28	0	0	1	n/a	CorrectRejection
79.462	2	TrialStart	Oddball	29	1	1	1	593	Hit
81.461	0.2	ToneStart	Oddball	29	1	1	1	593	Hit
82.728	1	TrialStart	Novel	30	0	0	1	n/a	CorrectRejection
83.729	0.2	ToneStart	Novel	30	0	0	1	n/a	CorrectRejection
84.994	1	TrialStart	Standard	31	0	0	1	n/a	CorrectRejection
85.994	0.2	ToneStart	Standard	31	0	0	1	n/a	CorrectRejection
87.261	2	TrialStart	Standard	32	0	0	1	n/a	CorrectRejection
89.261	0.2	ToneStart	Standard	32	0	0	1	n/a	CorrectRejection
90.527	1	TrialStart	Novel	33	0	0	1	n/a	CorrectRejection
91.528	0.2	ToneStart	Novel	33	0	0	1	n/a	CorrectRejection
92.794	2	TrialStart	Standard	34	0	0	1	n/a	CorrectRejection
94.793	0.2	ToneStart	Standard	34	0	0	1	n/a	CorrectRejection
96.06	2	TrialStart	Standard	35	0	0	1	n/a	CorrectRejection
98.061	0.2	ToneStart	Standard	35	0	0	1	n/a	CorrectRejection
99.326	1	TrialStart	Standard	36	0	0	1	n/a	CorrectRejection
100.326	0.2	ToneStart	Standard	36	0	0	1	n/a	CorrectRejection
101.593	1	TrialStart	Standard	37	0	0	1	n/a	CorrectRejection
102.593	0.2	ToneStart	Standard	37	0	0	1	n/a	CorrectRejection
103.859	2	TrialStart	Standard	38	0	0	1	n/a	CorrectRejection
105.859	0.2	ToneStart	Standard	38	0	0	1	n/a	CorrectRejection
107.125	2	TrialStart	Oddball	39	1	1	1	515	Hit
109.125	0.2	ToneStart	Oddball	39	1	1	1	515	Hit
110.392	2	TrialStart	Standard	40	0	0	1	n/a	CorrectRejection
112.392	0.2	ToneStart	Standard	40	0	0	1	n/a	CorrectRejection
113.66	2	TrialStart	Standard	41	0	0	1	n/a	CorrectRejection
115.658	0.2	ToneStart	Standard	41	0	0	1	n/a	CorrectRejection
116.924	1	TrialStart	Standard	42	0	0	1	n/a	CorrectRejection
117.924	0.2	ToneStart	Standard	42	0	0	1	n/a	CorrectRejection
119.191	1	TrialStart	Standard	43	0	0	1	n/a	CorrectRejection
120.191	0.2	ToneStart	Standard	43	0	0	1	n/a	CorrectRejection
121.457	1	TrialStart	Novel	44	0	0	1	n/a	CorrectRejection
122.457	0.2	ToneStart	Novel	44	0	0	1	n/a	CorrectRejection
123.724	1	TrialStart	Standard	45	0	0	1	n/a	CorrectRejection
124.724	0.2	ToneStart	Standard	45	0	0	1	n/a	CorrectRejection
125.99	2	TrialStart	Standard	46	0	0	1	n/a	CorrectRejection
127.991	0.2	ToneStart	Standard	46	0	0	1	n/a	CorrectRejection
129.256	2	TrialStart	Standard	47	0	0	1	n/a	CorrectRejection
131.256	0.2	ToneStart	Standard	47	0	0	1	n/a	CorrectRejection
132.523	1	TrialStart	Standard	48	0	0	1	n/a	CorrectRejection
133.523	0.2	ToneStart	Standard	48	0	0	1	n/a	CorrectRejection
134.789	2	TrialStart	Oddball	49	1	1	1	448	Hit
136.789	0.2	ToneStart	Oddball	49	1	1	1	448	Hit
138.056	2	TrialStart	Standard	50	0	0	1	n/a	CorrectRejection
140.055	0.2	ToneStart	Standard	50	0	0	1	n/a	CorrectRejection
141.322	2	TrialStart	Standard	51	0	0	1	n/a	CorrectRejection
143.322	0.2	ToneStart	Standard	51	0	0	1	n/a	CorrectRejection
144.588	2	TrialStart	Standard	52	0	0	1	n/a	CorrectRejection
146.588	0.2	ToneStart	Standard	52	0	0	1	n/a	CorrectRejection
147.855	2	TrialStart	Novel	53	0	0	1	n/a	CorrectRejection
149.854	0.2	ToneStart	Novel	53	0	0	1	n/a	CorrectRejection
151.121	2	TrialStart	Standard	54	0	0	1	n/a	CorrectRejection
153.122	0.2	ToneStart	Standard	54	0	0	1	n/a	CorrectRejection
154.387	1	TrialStart	Standard	55	0	0	1	n/a	CorrectRejection
155.387	0.2	ToneStart	Standard	55	0	0	1	n/a	CorrectRejection
156.654	1	TrialStart	Novel	56	0	0	1	n/a	CorrectRejection
157.654	0.2	ToneStart	Novel	56	0	0	1	n/a	CorrectRejection
158.92	2	TrialStart	Standard	57	0	0	1	n/a	CorrectRejection
160.92	0.2	ToneStart	Standard	57	0	0	1	n/a	CorrectRejection
162.186	1	TrialStart	Standard	58	0	0	1	n/a	CorrectRejection
163.187	0.2	ToneStart	Standard	58	0	0	1	n/a	CorrectRejection
164.453	1	TrialStart	Standard	59	0	0	1	n/a	CorrectRejection
165.453	0.2	ToneStart	Standard	59	0	0	1	n/a	CorrectRejection
166.719	1	TrialStart	Oddball	60	1	1	1	573	Hit
167.719	0.2	ToneStart	Oddball	60	1	1	1	573	Hit
168.986	1	TrialStart	Standard	61	0	0	1	n/a	CorrectRejection
169.986	0.2	ToneStart	Standard	61	0	0	1	n/a	CorrectRejection
171.252	2	TrialStart	Standard	62	0	0	1	n/a	CorrectRejection
173.252	0.2	ToneStart	Standard	62	0	0	1	n/a	CorrectRejection
174.518	2	TrialStart	Standard	63	0	0	1	n/a	CorrectRejection
176.518	0.2	ToneStart	Standard	63	0	0	1	n/a	CorrectRejection
177.785	1	TrialStart	Standard	64	0	0	1	n/a	CorrectRejection
178.786	0.2	ToneStart	Standard	64	0	0	1	n/a	CorrectRejection
180.051	1	TrialStart	Novel	65	0	0	1	n/a	CorrectRejection
181.051	0.2	ToneStart	Novel	65	0	0	1	n/a	CorrectRejection
182.301	2	TrialStart	Standard	66	0	0	1	n/a	CorrectRejection
184.301	0.2	ToneStart	Standard	66	0	0	1	n/a	CorrectRejection
185.567	1	TrialStart	Standard	67	0	0	1	n/a	CorrectRejection
186.567	0.2	ToneStart	Standard	67	0	0	1	n/a	CorrectRejection
187.817	2	TrialStart	Oddball	68	1	1	1	676	Hit
189.817	0.2	ToneStart	Oddball	68	1	1	1	676	Hit
191.067	1	TrialStart	Standard	69	0	0	1	n/a	CorrectRejection
192.067	0.2	ToneStart	Standard	69	0	0	1	n/a	CorrectRejection
193.333	1	TrialStart	Standard	70	0	0	1	n/a	CorrectRejection
194.333	0.2	ToneStart	Standard	70	0	0	1	n/a	CorrectRejection
195.6	2	TrialStart	Standard	71	0	0	1	n/a	CorrectRejection
197.599	0.2	ToneStart	Standard	71	0	0	1	n/a	CorrectRejection
198.866	2	TrialStart	Standard	72	0	0	1	n/a	CorrectRejection
200.866	0.2	ToneStart	Standard	72	0	0	1	n/a	CorrectRejection
202.132	1	TrialStart	Standard	73	0	0	1	n/a	CorrectRejection
203.133	0.2	ToneStart	Standard	73	0	0	1	n/a	CorrectRejection
204.399	2	TrialStart	Standard	74	0	0	1	n/a	CorrectRejection
206.399	0.2	ToneStart	Standard	74	0	0	1	n/a	CorrectRejection
207.665	2	TrialStart	Oddball	75	1	1	1	558	Hit
209.665	0.2	ToneStart	Oddball	75	1	1	1	558	Hit
210.931	2	TrialStart	Standard	76	0	0	1	n/a	CorrectRejection
212.931	0.2	ToneStart	Standard	76	0	0	1	n/a	CorrectRejection
214.198	1	TrialStart	Standard	77	0	0	1	n/a	CorrectRejection
215.198	0.2	ToneStart	Standard	77	0	0	1	n/a	CorrectRejection
216.464	2	TrialStart	Standard	78	0	0	1	n/a	CorrectRejection
218.464	0.2	ToneStart	Standard	78	0	0	1	n/a	CorrectRejection
219.731	1	TrialStart	Novel	79	0	0	1	n/a	CorrectRejection
220.731	0.2	ToneStart	Novel	79	0	0	1	n/a	CorrectRejection
221.997	2	TrialStart	Standard	80	0	0	1	n/a	CorrectRejection
223.997	0.2	ToneStart	Standard	80	0	0	1	n/a	CorrectRejection
225.263	2	TrialStart	Standard	81	0	0	1	n/a	CorrectRejection
227.264	0.2	ToneStart	Standard	81	0	0	1	n/a	CorrectRejection
228.53	2	TrialStart	Oddball	82	1	1	1	528	Hit
230.529	0.2	ToneStart	Oddball	82	1	1	1	528	Hit
231.796	2	TrialStart	Standard	83	0	0	1	n/a	CorrectRejection
233.796	0.2	ToneStart	Standard	83	0	0	1	n/a	CorrectRejection
235.062	2	TrialStart	Standard	84	0	0	1	n/a	CorrectRejection
237.062	0.2	ToneStart	Standard	84	0	0	1	n/a	CorrectRejection
238.329	2	TrialStart	Novel	85	0	0	1	n/a	CorrectRejection
240.328	0.2	ToneStart	Novel	85	0	0	1	n/a	CorrectRejection
241.595	1	TrialStart	Standard	86	0	0	1	n/a	CorrectRejection
242.595	0.2	ToneStart	Standard	86	0	0	1	n/a	CorrectRejection
243.861	2	TrialStart	Standard	87	0	0	1	n/a	CorrectRejection
245.861	0.2	ToneStart	Standard	87	0	0	1	n/a	CorrectRejection
247.128	1	TrialStart	Standard	88	0	0	1	n/a	CorrectRejection
248.128	0.2	ToneStart	Standard	88	0	0	1	n/a	CorrectRejection
249.394	1	TrialStart	Standard	89	0	0	1	n/a	CorrectRejection
250.394	0.2	ToneStart	Standard	89	0	0	1	n/a	CorrectRejection
251.661	2	TrialStart	Standard	90	0	0	1	n/a	CorrectRejection
253.66	0.2	ToneStart	Standard	90	0	0	1	n/a	CorrectRejection
254.927	1	TrialStart	Standard	91	0	0	1	n/a	CorrectRejection
255.927	0.2	ToneStart	Standard	91	0	0	1	n/a	CorrectRejection
257.193	1	TrialStart	Standard	92	0	0	1	n/a	CorrectRejection
258.193	0.2	ToneStart	Standard	92	0	0	1	n/a	CorrectRejection
259.46	2	TrialStart	Standard	93	0	0	1	n/a	CorrectRejection
261.46	0.2	ToneStart	Standard	93	0	0	1	n/a	CorrectRejection
262.726	1	TrialStart	Novel	94	0	0	1	n/a	CorrectRejection
263.727	0.2	ToneStart	Novel	94	0	0	1	n/a	CorrectRejection
264.993	2	TrialStart	Oddball	95	1	1	1	420	Hit
266.992	0.2	ToneStart	Oddball	95	1	1	1	420	Hit
268.259	2	TrialStart	Standard	96	0	0	1	n/a	CorrectRejection
270.259	0.2	ToneStart	Standard	96	0	0	1	n/a	CorrectRejection
271.525	1	TrialStart	Standard	97	0	0	1	n/a	CorrectRejection
272.525	0.2	ToneStart	Standard	97	0	0	1	n/a	CorrectRejection
273.792	2	TrialStart	Standard	98	0	0	1	n/a	CorrectRejection
275.791	0.2	ToneStart	Standard	98	0	0	1	n/a	CorrectRejection
277.059	1	TrialStart	Standard	99	0	0	1	n/a	CorrectRejection
278.058	0.2	ToneStart	Standard	99	0	0	1	n/a	CorrectRejection
279.324	1	TrialStart	Standard	100	0	0	1	n/a	CorrectRejection
280.324	0.2	ToneStart	Standard	100	0	0	1	n/a	CorrectRejection
281.591	1	TrialStart	Standard	101	0	0	1	n/a	CorrectRejection
282.591	0.2	ToneStart	Standard	101	0	0	1	n/a	CorrectRejection
283.857	1	TrialStart	Standard	102	0	0	1	n/a	CorrectRejection
284.857	0.2	ToneStart	Standard	102	0	0	1	n/a	CorrectRejection
286.124	1	TrialStart	Standard	103	0	0	1	n/a	CorrectRejection
287.124	0.2	ToneStart	Standard	103	0	0	1	n/a	CorrectRejection
288.39	1	TrialStart	Standard	104	0	0	1	n/a	CorrectRejection
289.39	0.2	ToneStart	Standard	104	0	0	1	n/a	CorrectRejection
290.657	1	TrialStart	Oddball	105	1	1	1	640	Hit
291.656	0.2	ToneStart	Oddball	105	1	1	1	640	Hit
292.923	2	TrialStart	Standard	106	0	0	1	n/a	CorrectRejection
294.923	0.2	ToneStart	Standard	106	0	0	1	n/a	CorrectRejection
296.206	1	TrialStart	Standard	107	0	0	1	n/a	CorrectRejection
297.206	0.2	ToneStart	Standard	107	0	0	1	n/a	CorrectRejection
298.472	1	TrialStart	Standard	108	0	0	1	n/a	CorrectRejection
299.472	0.2	ToneStart	Standard	108	0	0	1	n/a	CorrectRejection
300.739	1	TrialStart	Standard	109	0	0	1	n/a	CorrectRejection
301.739	0.2	ToneStart	Standard	109	0	0	1	n/a	CorrectRejection
303.005	2	TrialStart	Standard	110	0	0	1	n/a	CorrectRejection
305.005	0.2	ToneStart	Standard	110	0	0	1	n/a	CorrectRejection
306.272	1	TrialStart	Oddball	111	1	1	1	627	Hit
307.272	0.2	ToneStart	Oddball	111	1	1	1	627	Hit
308.538	1	TrialStart	Standard	112	0	0	1	n/a	CorrectRejection
309.538	0.2	ToneStart	Standard	112	0	0	1	n/a	CorrectRejection
310.805	2	TrialStart	Standard	113	0	0	1	n/a	CorrectRejection
312.804	0.2	ToneStart	Standard	113	0	0	1	n/a	CorrectRejection
314.071	2	TrialStart	Standard	114	0	0	1	n/a	CorrectRejection
316.072	0.2	ToneStart	Standard	114	0	0	1	n/a	CorrectRejection
317.337	2	TrialStart	Standard	115	0	0	1	n/a	CorrectRejection
319.337	0.2	ToneStart	Standard	115	0	0	1	n/a	CorrectRejection
320.604	1	TrialStart	Standard	116	0	0	1	n/a	CorrectRejection
321.62	0.2	ToneStart	Standard	116	0	0	1	n/a	CorrectRejection
322.887	2	TrialStart	Standard	117	0	0	1	n/a	CorrectRejection
324.886	0.2	ToneStart	Standard	117	0	0	1	n/a	CorrectRejection
326.153	1	TrialStart	Standard	118	0	0	1	n/a	CorrectRejection
327.153	0.2	ToneStart	Standard	118	0	0	1	n/a	CorrectRejection
328.419	1	TrialStart	Standard	119	0	0	1	n/a	CorrectRejection
329.419	0.2	ToneStart	Standard	119	0	0	1	n/a	CorrectRejection
330.686	1	TrialStart	Standard	120	0	0	1	n/a	CorrectRejection
331.687	0.2	ToneStart	Standard	120	0	0	1	n/a	CorrectRejection
