onset	duration	TrialEvent	ToneLabel	Trial	CRESP	RESP	ACC	RT	Code
0.054	2	TrialStart	Standard	1	0	0	1	n/a	CorrectRejection
2.054	0.2	ToneStart	Standard	1	0	0	1	n/a	CorrectRejection
3.32	2	TrialStart	Standard	2	0	0	1	n/a	CorrectRejection
5.32	0.2	ToneStart	Standard	2	0	0	1	n/a	CorrectRejection
6.586	2	TrialStart	Standard	3	0	0	1	n/a	CorrectRejection
8.586	0.2	ToneStart	Standard	3	0	0	1	n/a	CorrectRejection
9.853	2	TrialStart	Novel	4	0	0	1	n/a	CorrectRejection
11.854	0.2	ToneStart	Novel	4	0	0	1	n/a	CorrectRejection
13.119	1	TrialStart	Standard	5	0	0	1	n/a	CorrectRejection
14.119	0.2	ToneStart	Standard	5	0	0	1	n/a	CorrectRejection
15.386	1	TrialStart	Standard	6	0	0	1	n/a	CorrectRejection
16.386	0.2	ToneStart	Standard	6	0	0	1	n/a	CorrectRejection
17.652	2	TrialStart	Standard	7	0	0	1	n/a	CorrectRejection
19.652	0.2	ToneStart	Standard	7	0	0	1	n/a	CorrectRejection
20.918	1	TrialStart	Standard	8	0	0	1	n/a	CorrectRejection
21.918	0.2	ToneStart	Standard	8	0	0	1	n/a	CorrectRejection
23.185	1	TrialStart	Standard	9	0	0	1	n/a	CorrectRejection
24.185	0.2	ToneStart	Standard	9	0	0	1	n/a	CorrectRejection
25.451	1	TrialStart	Standard	10	0	0	1	n/a	CorrectRejection
26.451	0.2	ToneStart	Standard	10	0	0	1	n/a	CorrectRejection
27.718	1	TrialStart	Oddball	11	1	1	1	355	Hit
28.719	0.2	ToneStart	Oddball	11	1	1	1	355	Hit
29.984	1	TrialStart	Standard	12	0	0	1	n/a	CorrectRejection
30.984	0.2	ToneStart	Standard	12	0	0	1	n/a	CorrectRejection
32.251	2	TrialStart	Standard	13	0	0	1	n/a	CorrectRejection
34.251	0.2	ToneStart	Standard	13	0	0	1	n/a	CorrectRejection
35.517	1	TrialStart	Standard	14	0	0	1	n/a	CorrectRejection
36.584	0.2	ToneStart	Standard	14	0	0	1	n/a	CorrectRejection
37.85	2	TrialStart	Standard	15	0	0	1	n/a	CorrectRejection
39.85	0.2	ToneStart	Standard	15	0	0	1	n/a	CorrectRejection
41.117	2	TrialStart	Standard	16	0	0	1	n/a	CorrectRejection
43.116	0.2	ToneStart	Standard	16	0	0	1	n/a	CorrectRejection
44.383	1	TrialStart	Novel	17	0	0	1	n/a	CorrectRejection
45.384	0.2	ToneStart	Novel	17	0	0	1	n/a	CorrectRejection
46.649	2	TrialStart	Standard	18	0	0	1	n/a	CorrectRejection
48.649	0.2	ToneStart	Standard	18	0	0	1	n/a	CorrectRejection
49.899	2	TrialStart	Standard	19	0	0	1	n/a	CorrectRejection
51.899	0.2	ToneStart	Standard	19	0	0	1	n/a	CorrectRejection
53.149	1	TrialStart	Standard	20	0	0	1	n/a	CorrectRejection
54.149	0.2	ToneStart	Standard	20	0	0	1	n/a	CorrectRejection
55.415	2	TrialStart	Standard	21	0	0	1	n/a	CorrectRejection
57.415	0.2	ToneStart	Standard	21	0	0	1	n/a	CorrectRejection
58.682	2	TrialStart	Standard	22	0	0	1	n/a	CorrectRejection
60.681	0.2	ToneStart	Standard	22	0	0	1	n/a	CorrectRejection
61.948	1	TrialStart	Novel	23	0	0	1	n/a	CorrectRejection
62.948	0.2	ToneStart	Novel	23	0	0	1	n/a	CorrectRejection
64.198	2	TrialStart	Oddball	24	1	1	1	490	Hit
66.198	0.2	ToneStart	Oddball	24	1	1	1	490	Hit
67.464	2	TrialStart	Standard	25	0	0	1	n/a	CorrectRejection
69.464	0.2	ToneStart	Standard	25	0	0	1	n/a	CorrectRejection
70.73	2	TrialStart	Standard	26	0	0	1	n/a	CorrectRejection
72.73	0.2	ToneStart	Standard	26	0	0	1	n/a	CorrectRejection
73.98	1	TrialStart	Standard	27	0	0	1	n/a	CorrectRejection
74.98	0.2	ToneStart	Standard	27	0	0	1	n/a	CorrectRejection
76.23	2	TrialStart	Standard	28	0	0	1	n/a	CorrectRejection
78.23	0.2	ToneStart	Standard	28	0	0	1	n/a	CorrectRejection
79.496	2	TrialStart	Oddball	29	1	1	1	454	Hit
81.496	0.2	ToneStart	Oddball	29	1	1	1	454	Hit
82.763	1	TrialStart	Novel	30	0	0	1	n/a	CorrectRejection
83.763	0.2	ToneStart	Novel	30	0	0	1	n/a	CorrectRejection
85.029	1	TrialStart	Standard	31	0	0	1	n/a	CorrectRejection
86.029	0.2	ToneStart	Standard	31	0	0	1	n/a	CorrectRejection
87.296	2	TrialStart	Standard	32	0	0	1	n/a	CorrectRejection
89.295	0.2	ToneStart	Standard	32	0	0	1	n/a	CorrectRejection
90.562	1	TrialStart	Novel	33	0	0	1	n/a	CorrectRejection
91.563	0.2	ToneStart	Novel	33	0	0	1	n/a	CorrectRejection
92.828	2	TrialStart	Standard	34	0	0	1	n/a	CorrectRejection
94.828	0.2	ToneStart	Standard	34	0	0	1	n/a	CorrectRejection
96.078	2	TrialStart	Standard	35	0	0	1	n/a	CorrectRejection
98.078	0.2	ToneStart	Standard	35	0	0	1	n/a	CorrectRejection
99.328	1	TrialStart	Standard	36	0	0	1	n/a	CorrectRejection
100.328	0.2	ToneStart	Standard	36	0	0	1	n/a	CorrectRejection
101.578	1	TrialStart	Standard	37	0	0	1	n/a	CorrectRejection
102.577	0.2	ToneStart	Standard	37	0	0	1	n/a	CorrectRejection
103.827	2	TrialStart	Standard	38	0	0	1	n/a	CorrectRejection
105.827	0.2	ToneStart	Standard	38	0	0	1	n/a	CorrectRejection
107.077	2	TrialStart	Oddball	39	1	1	1	453	Hit
109.077	0.2	ToneStart	Oddball	39	1	1	1	453	Hit
110.327	2	TrialStart	Standard	40	0	0	1	n/a	CorrectRejection
112.327	0.2	ToneStart	Standard	40	0	0	1	n/a	CorrectRejection
113.576	2	TrialStart	Standard	41	0	0	1	n/a	CorrectRejection
115.577	0.2	ToneStart	Standard	41	0	0	1	n/a	CorrectRejection
116.826	1	TrialStart	Standard	42	0	0	1	n/a	CorrectRejection
117.826	0.2	ToneStart	Standard	42	0	0	1	n/a	CorrectRejection
119.093	1	TrialStart	Standard	43	0	0	1	n/a	CorrectRejection
120.093	0.2	ToneStart	Standard	43	0	0	1	n/a	CorrectRejection
121.342	1	TrialStart	Novel	44	0	0	1	n/a	CorrectRejection
122.342	0.2	ToneStart	Novel	44	0	0	1	n/a	CorrectRejection
123.592	1	TrialStart	Standard	45	0	0	1	n/a	CorrectRejection
124.592	0.2	ToneStart	Standard	45	0	0	1	n/a	CorrectRejection
125.842	2	TrialStart	Standard	46	0	0	1	n/a	CorrectRejection
127.842	0.2	ToneStart	Standard	46	0	0	1	n/a	CorrectRejection
129.092	2	TrialStart	Standard	47	0	0	1	n/a	CorrectRejection
131.091	0.2	ToneStart	Standard	47	0	0	1	n/a	CorrectRejection
132.341	1	TrialStart	Standard	48	0	0	1	n/a	CorrectRejection
133.341	0.2	ToneStart	Standard	48	0	0	1	n/a	CorrectRejection
134.591	2	TrialStart	Oddball	49	1	1	1	387	Hit
136.591	0.2	ToneStart	Oddball	49	1	1	1	387	Hit
137.842	2	TrialStart	Standard	50	0	0	1	n/a	CorrectRejection
139.841	0.2	ToneStart	Standard	50	0	0	1	n/a	CorrectRejection
141.091	2	TrialStart	Standard	51	0	0	1	n/a	CorrectRejection
143.09	0.2	ToneStart	Standard	51	0	0	1	n/a	CorrectRejection
144.34	2	TrialStart	Standard	52	0	0	1	n/a	CorrectRejection
146.34	0.2	ToneStart	Standard	52	0	0	1	n/a	CorrectRejection
147.59	2	TrialStart	Novel	53	0	0	1	n/a	CorrectRejection
149.59	0.2	ToneStart	Novel	53	0	0	1	n/a	CorrectRejection
150.84	2	TrialStart	Standard	54	0	0	1	n/a	CorrectRejection
152.839	0.2	ToneStart	Standard	54	0	0	1	n/a	CorrectRejection
154.089	1	TrialStart	Standard	55	0	0	1	n/a	CorrectRejection
155.089	0.2	ToneStart	Standard	55	0	0	1	n/a	CorrectRejection
156.339	1	TrialStart	Novel	56	0	0	1	n/a	CorrectRejection
157.34	0.2	ToneStart	Novel	56	0	0	1	n/a	CorrectRejection
158.589	2	TrialStart	Standard	57	0	0	1	n/a	CorrectRejection
160.589	0.2	ToneStart	Standard	57	0	0	1	n/a	CorrectRejection
161.839	1	TrialStart	Standard	58	0	0	1	n/a	CorrectRejection
162.839	0.2	ToneStart	Standard	58	0	0	1	n/a	CorrectRejection
164.088	1	TrialStart	Standard	59	0	0	1	n/a	CorrectRejection
165.089	0.2	ToneStart	Standard	59	0	0	1	n/a	CorrectRejection
166.338	1	TrialStart	Oddball	60	1	1	1	973	Hit
167.339	0.2	ToneStart	Oddball	60	1	1	1	973	Hit
168.588	1	TrialStart	Standard	61	0	0	1	n/a	CorrectRejection
169.589	0.2	ToneStart	Standard	61	0	0	1	n/a	CorrectRejection
170.838	2	TrialStart	Standard	62	0	0	1	n/a	CorrectRejection
172.838	0.2	ToneStart	Standard	62	0	0	1	n/a	CorrectRejection
174.088	2	TrialStart	Standard	63	0	0	1	n/a	CorrectRejection
176.087	0.2	ToneStart	Standard	63	0	0	1	n/a	CorrectRejection
177.337	1	TrialStart	Standard	64	0	0	1	n/a	CorrectRejection
178.338	0.2	ToneStart	Standard	64	0	0	1	n/a	CorrectRejection
179.587	1	TrialStart	Novel	65	0	0	1	n/a	CorrectRejection
180.588	0.2	ToneStart	Novel	65	0	0	1	n/a	CorrectRejection
181.837	2	TrialStart	Standard	66	0	0	1	n/a	CorrectRejection
183.837	0.2	ToneStart	Standard	66	0	0	1	n/a	CorrectRejection
185.086	1	TrialStart	Standard	67	0	0	1	n/a	CorrectRejection
186.086	0.2	ToneStart	Standard	67	0	0	1	n/a	CorrectRejection
187.336	2	TrialStart	Oddball	68	1	1	1	392	Hit
189.336	0.2	ToneStart	Oddball	68	1	1	1	392	Hit
190.586	1	TrialStart	Standard	69	0	0	1	n/a	CorrectRejection
191.586	0.2	ToneStart	Standard	69	0	0	1	n/a	CorrectRejection
192.836	1	TrialStart	Standard	70	0	0	1	n/a	CorrectRejection
193.837	0.2	ToneStart	Standard	70	0	0	1	n/a	CorrectRejection
195.086	2	TrialStart	Standard	71	0	0	1	n/a	CorrectRejection
197.085	0.2	ToneStart	Standard	71	0	0	1	n/a	CorrectRejection
198.335	2	TrialStart	Standard	72	0	0	1	n/a	CorrectRejection
200.335	0.2	ToneStart	Standard	72	0	0	1	n/a	CorrectRejection
201.585	1	TrialStart	Standard	73	0	0	1	n/a	CorrectRejection
202.585	0.2	ToneStart	Standard	73	0	0	1	n/a	CorrectRejection
203.835	2	TrialStart	Standard	74	0	0	1	n/a	CorrectRejection
205.835	0.2	ToneStart	Standard	74	0	0	1	n/a	CorrectRejection
207.084	2	TrialStart	Oddball	75	1	1	1	412	Hit
209.084	0.2	ToneStart	Oddball	75	1	1	1	412	Hit
210.334	2	TrialStart	Standard	76	0	0	1	n/a	CorrectRejection
212.334	0.2	ToneStart	Standard	76	0	0	1	n/a	CorrectRejection
213.584	1	TrialStart	Standard	77	0	0	1	n/a	CorrectRejection
214.584	0.2	ToneStart	Standard	77	0	0	1	n/a	CorrectRejection
215.834	2	TrialStart	Standard	78	0	0	1	n/a	CorrectRejection
217.833	0.2	ToneStart	Standard	78	0	0	1	n/a	CorrectRejection
219.083	1	TrialStart	Novel	79	0	0	1	n/a	CorrectRejection
220.083	0.2	ToneStart	Novel	79	0	0	1	n/a	CorrectRejection
221.333	2	TrialStart	Standard	80	0	0	1	n/a	CorrectRejection
223.333	0.2	ToneStart	Standard	80	0	0	1	n/a	CorrectRejection
224.583	2	TrialStart	Standard	81	0	0	1	n/a	CorrectRejection
226.584	0.2	ToneStart	Standard	81	0	0	1	n/a	CorrectRejection
227.832	2	TrialStart	Oddball	82	1	1	1	508	Hit
229.832	0.2	ToneStart	Oddball	82	1	1	1	508	Hit
231.082	2	TrialStart	Standard	83	0	0	1	n/a	CorrectRejection
233.082	0.2	ToneStart	Standard	83	0	0	1	n/a	CorrectRejection
234.332	2	TrialStart	Standard	84	0	0	1	n/a	CorrectRejection
236.332	0.2	ToneStart	Standard	84	0	0	1	n/a	CorrectRejection
237.582	2	TrialStart	Novel	85	0	0	1	n/a	CorrectRejection
239.581	0.2	ToneStart	Novel	85	0	0	1	n/a	CorrectRejection
240.831	1	TrialStart	Standard	86	0	0	1	n/a	CorrectRejection
241.831	0.2	ToneStart	Standard	86	0	0	1	n/a	CorrectRejection
243.081	2	TrialStart	Standard	87	0	0	1	n/a	CorrectRejection
245.082	0.2	ToneStart	Standard	87	0	0	1	n/a	CorrectRejection
246.331	1	TrialStart	Standard	88	0	0	1	n/a	CorrectRejection
247.332	0.2	ToneStart	Standard	88	0	0	1	n/a	CorrectRejection
248.581	1	TrialStart	Standard	89	0	0	1	n/a	CorrectRejection
249.58	0.2	ToneStart	Standard	89	0	0	1	n/a	CorrectRejection
250.83	2	TrialStart	Standard	90	0	0	1	n/a	CorrectRejection
252.83	0.2	ToneStart	Standard	90	0	0	1	n/a	CorrectRejection
254.08	1	TrialStart	Standard	91	0	0	1	n/a	CorrectRejection
255.08	0.2	ToneStart	Standard	91	0	0	1	n/a	CorrectRejection
256.347	1	TrialStart	Standard	92	0	0	1	n/a	CorrectRejection
257.347	0.2	ToneStart	Standard	92	0	0	1	n/a	CorrectRejection
258.596	2	TrialStart	Standard	93	0	0	1	n/a	CorrectRejection
260.596	0.2	ToneStart	Standard	93	0	0	1	n/a	CorrectRejection
261.846	1	TrialStart	Novel	94	0	0	1	n/a	CorrectRejection
262.847	0.2	ToneStart	Novel	94	0	0	1	n/a	CorrectRejection
264.096	2	TrialStart	Oddball	95	1	1	1	457	Hit
266.096	0.2	ToneStart	Oddball	95	1	1	1	457	Hit
267.345	2	TrialStart	Standard	96	0	0	1	n/a	CorrectRejection
269.345	0.2	ToneStart	Standard	96	0	0	1	n/a	CorrectRejection
270.595	1	TrialStart	Standard	97	0	0	1	n/a	CorrectRejection
271.596	0.2	ToneStart	Standard	97	0	0	1	n/a	CorrectRejection
272.845	2	TrialStart	Standard	98	0	0	1	n/a	CorrectRejection
274.846	0.2	ToneStart	Standard	98	0	0	1	n/a	CorrectRejection
276.095	1	TrialStart	Standard	99	0	0	1	n/a	CorrectRejection
277.095	0.2	ToneStart	Standard	99	0	0	1	n/a	CorrectRejection
278.344	1	TrialStart	Standard	100	0	0	1	n/a	CorrectRejection
279.344	0.2	ToneStart	Standard	100	0	0	1	n/a	CorrectRejection
280.594	1	TrialStart	Standard	101	0	0	1	n/a	CorrectRejection
281.596	0.2	ToneStart	Standard	101	0	0	1	n/a	CorrectRejection
282.844	1	TrialStart	Standard	102	0	0	1	n/a	CorrectRejection
283.844	0.2	ToneStart	Standard	102	0	0	1	n/a	CorrectRejection
285.094	1	TrialStart	Standard	103	0	0	1	n/a	CorrectRejection
286.094	0.2	ToneStart	Standard	103	0	0	1	n/a	CorrectRejection
287.344	1	TrialStart	Standard	104	0	0	1	n/a	CorrectRejection
288.344	0.2	ToneStart	Standard	104	0	0	1	n/a	CorrectRejection
289.593	1	TrialStart	Oddball	105	1	1	1	462	Hit
290.593	0.2	ToneStart	Oddball	105	1	1	1	462	Hit
291.843	2	TrialStart	Standard	106	0	0	1	n/a	CorrectRejection
293.843	0.2	ToneStart	Standard	106	0	0	1	n/a	CorrectRejection
295.093	1	TrialStart	Standard	107	0	0	1	n/a	CorrectRejection
296.094	0.2	ToneStart	Standard	107	0	0	1	n/a	CorrectRejection
297.343	1	TrialStart	Standard	108	0	0	1	n/a	CorrectRejection
298.343	0.2	ToneStart	Standard	108	0	0	1	n/a	CorrectRejection
299.592	1	TrialStart	Standard	109	0	0	1	n/a	CorrectRejection
300.592	0.2	ToneStart	Standard	109	0	0	1	n/a	CorrectRejection
301.842	2	TrialStart	Standard	110	0	0	1	n/a	CorrectRejection
303.843	0.2	ToneStart	Standard	110	0	0	1	n/a	CorrectRejection
305.092	1	TrialStart	Oddball	111	1	1	1	537	Hit
306.092	0.2	ToneStart	Oddball	111	1	1	1	537	Hit
307.342	1	TrialStart	Standard	112	0	0	1	n/a	CorrectRejection
308.343	0.2	ToneStart	Standard	112	0	0	1	n/a	CorrectRejection
309.592	2	TrialStart	Standard	113	0	0	1	n/a	CorrectRejection
311.591	0.2	ToneStart	Standard	113	0	0	1	n/a	CorrectRejection
312.841	2	TrialStart	Standard	114	0	0	1	n/a	CorrectRejection
314.841	0.2	ToneStart	Standard	114	0	0	1	n/a	CorrectRejection
316.091	2	TrialStart	Standard	115	0	0	1	n/a	CorrectRejection
318.091	0.2	ToneStart	Standard	115	0	0	1	n/a	CorrectRejection
319.341	1	TrialStart	Standard	116	0	0	1	n/a	CorrectRejection
320.34	0.2	ToneStart	Standard	116	0	0	1	n/a	CorrectRejection
321.59	2	TrialStart	Standard	117	0	0	1	n/a	CorrectRejection
323.59	0.2	ToneStart	Standard	117	0	0	1	n/a	CorrectRejection
324.84	1	TrialStart	Standard	118	0	0	1	n/a	CorrectRejection
325.84	0.2	ToneStart	Standard	118	0	0	1	n/a	CorrectRejection
327.09	1	TrialStart	Standard	119	0	0	1	n/a	CorrectRejection
328.09	0.2	ToneStart	Standard	119	0	0	1	n/a	CorrectRejection
329.34	1	TrialStart	Standard	120	0	0	1	n/a	CorrectRejection
330.34	0.2	ToneStart	Standard	120	0	0	1	n/a	CorrectRejection
