onset	duration	TrialEvent	ToneLabel	Trial	CRESP	RESP	ACC	RT	Code
0.04	2	TrialStart	Standard	1	0	0	1	n/a	CorrectRejection
2.041	0.2	ToneStart	Standard	1	0	0	1	n/a	CorrectRejection
3.307	2	TrialStart	Standard	2	0	0	1	n/a	CorrectRejection
5.307	0.2	ToneStart	Standard	2	0	0	1	n/a	CorrectRejection
6.573	2	TrialStart	Standard	3	0	0	1	n/a	CorrectRejection
8.573	0.2	ToneStart	Standard	3	0	0	1	n/a	CorrectRejection
9.823	2	TrialStart	Novel	4	0	0	1	n/a	CorrectRejection
11.823	0.2	ToneStart	Novel	4	0	0	1	n/a	CorrectRejection
13.073	1	TrialStart	Standard	5	0	0	1	n/a	CorrectRejection
14.073	0.2	ToneStart	Standard	5	0	0	1	n/a	CorrectRejection
15.339	1	TrialStart	Standard	6	0	0	1	n/a	CorrectRejection
16.339	0.2	ToneStart	Standard	6	0	0	1	n/a	CorrectRejection
17.589	2	TrialStart	Standard	7	0	0	1	n/a	CorrectRejection
19.589	0.2	ToneStart	Standard	7	0	0	1	n/a	CorrectRejection
20.839	1	TrialStart	Standard	8	0	0	1	n/a	CorrectRejection
21.839	0.2	ToneStart	Standard	8	0	0	1	n/a	CorrectRejection
23.088	1	TrialStart	Standard	9	0	0	1	n/a	CorrectRejection
24.088	0.2	ToneStart	Standard	9	0	0	1	n/a	CorrectRejection
25.338	1	TrialStart	Standard	10	0	0	1	n/a	CorrectRejection
26.338	0.2	ToneStart	Standard	10	0	0	1	n/a	CorrectRejection
27.588	1	TrialStart	Oddball	11	1	1	1	478	Hit
28.588	0.2	ToneStart	Oddball	11	1	1	1	478	Hit
29.838	1	TrialStart	Standard	12	0	0	1	n/a	CorrectRejection
30.838	0.2	ToneStart	Standard	12	0	0	1	n/a	CorrectRejection
32.088	2	TrialStart	Standard	13	0	0	1	n/a	CorrectRejection
34.087	0.2	ToneStart	Standard	13	0	0	1	n/a	CorrectRejection
35.337	1	TrialStart	Standard	14	0	0	1	n/a	CorrectRejection
36.337	0.2	ToneStart	Standard	14	0	0	1	n/a	CorrectRejection
37.587	2	TrialStart	Standard	15	0	0	1	n/a	CorrectRejection
39.587	0.2	ToneStart	Standard	15	0	0	1	n/a	CorrectRejection
40.837	2	TrialStart	Standard	16	0	0	1	n/a	CorrectRejection
42.837	0.2	ToneStart	Standard	16	0	0	1	n/a	CorrectRejection
44.103	1	TrialStart	Novel	17	0	0	1	n/a	CorrectRejection
45.103	0.2	ToneStart	Novel	17	0	0	1	n/a	CorrectRejection
46.353	2	TrialStart	Standard	18	0	0	1	n/a	CorrectRejection
48.354	0.2	ToneStart	Standard	18	0	0	1	n/a	CorrectRejection
49.603	2	TrialStart	Standard	19	0	0	1	n/a	CorrectRejection
51.603	0.2	ToneStart	Standard	19	0	0	1	n/a	CorrectRejection
52.852	1	TrialStart	Standard	20	0	0	1	n/a	CorrectRejection
53.852	0.2	ToneStart	Standard	20	0	0	1	n/a	CorrectRejection
55.102	2	TrialStart	Standard	21	0	0	1	n/a	CorrectRejection
57.102	0.2	ToneStart	Standard	21	0	0	1	n/a	CorrectRejection
58.352	2	TrialStart	Standard	22	0	0	1	n/a	CorrectRejection
60.352	0.2	ToneStart	Standard	22	0	0	1	n/a	CorrectRejection
61.602	1	TrialStart	Novel	23	0	0	1	n/a	CorrectRejection
62.602	0.2	ToneStart	Novel	23	0	0	1	n/a	CorrectRejection
63.851	2	TrialStart	Oddball	24	1	1	1	459	Hit
65.851	0.2	ToneStart	Oddball	24	1	1	1	459	Hit
67.101	2	TrialStart	Standard	25	0	0	1	n/a	CorrectRejection
69.101	0.2	ToneStart	Standard	25	0	0	1	n/a	CorrectRejection
70.351	2	TrialStart	Standard	26	0	0	1	n/a	CorrectRejection
72.351	0.2	ToneStart	Standard	26	0	0	1	n/a	CorrectRejection
73.601	1	TrialStart	Standard	27	0	0	1	n/a	CorrectRejection
74.6	0.2	ToneStart	Standard	27	0	0	1	n/a	CorrectRejection
75.851	2	TrialStart	Standard	28	0	0	1	n/a	CorrectRejection
77.85	0.2	ToneStart	Standard	28	0	0	1	n/a	CorrectRejection
79.1	2	TrialStart	Oddball	29	1	1	1	459	Hit
81.1	0.2	ToneStart	Oddball	29	1	1	1	459	Hit
82.366	1	TrialStart	Novel	30	0	0	1	n/a	CorrectRejection
83.366	0.2	ToneStart	Novel	30	0	0	1	n/a	CorrectRejection
84.616	1	TrialStart	Standard	31	0	0	1	n/a	CorrectRejection
85.616	0.2	ToneStart	Standard	31	0	0	1	n/a	CorrectRejection
86.866	2	TrialStart	Standard	32	0	0	1	n/a	CorrectRejection
88.866	0.2	ToneStart	Standard	32	0	0	1	n/a	CorrectRejection
90.116	1	TrialStart	Novel	33	0	1	0	692	FalseAlarm
91.116	0.2	ToneStart	Novel	33	0	1	0	692	FalseAlarm
92.366	2	TrialStart	Standard	34	0	0	1	n/a	CorrectRejection
94.365	0.2	ToneStart	Standard	34	0	0	1	n/a	CorrectRejection
95.615	2	TrialStart	Standard	35	0	0	1	n/a	CorrectRejection
97.615	0.2	ToneStart	Standard	35	0	0	1	n/a	CorrectRejection
98.865	1	TrialStart	Standard	36	0	0	1	n/a	CorrectRejection
99.865	0.2	ToneStart	Standard	36	0	0	1	n/a	CorrectRejection
101.115	1	TrialStart	Standard	37	0	0	1	n/a	CorrectRejection
102.115	0.2	ToneStart	Standard	37	0	0	1	n/a	CorrectRejection
103.365	2	TrialStart	Standard	38	0	0	1	n/a	CorrectRejection
105.364	0.2	ToneStart	Standard	38	0	0	1	n/a	CorrectRejection
106.614	2	TrialStart	Oddball	39	1	1	1	577	Hit
108.614	0.2	ToneStart	Oddball	39	1	1	1	577	Hit
109.864	2	TrialStart	Standard	40	0	0	1	n/a	CorrectRejection
111.864	0.2	ToneStart	Standard	40	0	0	1	n/a	CorrectRejection
113.13	2	TrialStart	Standard	41	0	0	1	n/a	CorrectRejection
115.13	0.2	ToneStart	Standard	41	0	0	1	n/a	CorrectRejection
116.38	1	TrialStart	Standard	42	0	0	1	n/a	CorrectRejection
117.38	0.2	ToneStart	Standard	42	0	0	1	n/a	CorrectRejection
118.63	1	TrialStart	Standard	43	0	0	1	n/a	CorrectRejection
119.63	0.2	ToneStart	Standard	43	0	0	1	n/a	CorrectRejection
120.88	1	TrialStart	Novel	44	0	0	1	n/a	CorrectRejection
121.88	0.2	ToneStart	Novel	44	0	0	1	n/a	CorrectRejection
123.13	1	TrialStart	Standard	45	0	0	1	n/a	CorrectRejection
124.146	0.2	ToneStart	Standard	45	0	0	1	n/a	CorrectRejection
125.396	2	TrialStart	Standard	46	0	0	1	n/a	CorrectRejection
127.396	0.2	ToneStart	Standard	46	0	0	1	n/a	CorrectRejection
128.646	2	TrialStart	Standard	47	0	0	1	n/a	CorrectRejection
130.646	0.2	ToneStart	Standard	47	0	0	1	n/a	CorrectRejection
131.895	1	TrialStart	Standard	48	0	0	1	n/a	CorrectRejection
132.895	0.2	ToneStart	Standard	48	0	0	1	n/a	CorrectRejection
134.145	2	TrialStart	Oddball	49	1	1	1	544	Hit
136.145	0.2	ToneStart	Oddball	49	1	1	1	544	Hit
137.395	2	TrialStart	Standard	50	0	0	1	n/a	CorrectRejection
139.395	0.2	ToneStart	Standard	50	0	0	1	n/a	CorrectRejection
140.645	2	TrialStart	Standard	51	0	0	1	n/a	CorrectRejection
142.644	0.2	ToneStart	Standard	51	0	0	1	n/a	CorrectRejection
143.895	2	TrialStart	Standard	52	0	0	1	n/a	CorrectRejection
145.894	0.2	ToneStart	Standard	52	0	0	1	n/a	CorrectRejection
147.144	2	TrialStart	Novel	53	0	0	1	n/a	CorrectRejection
149.144	0.2	ToneStart	Novel	53	0	0	1	n/a	CorrectRejection
150.394	2	TrialStart	Standard	54	0	0	1	n/a	CorrectRejection
152.394	0.2	ToneStart	Standard	54	0	0	1	n/a	CorrectRejection
153.643	1	TrialStart	Standard	55	0	0	1	n/a	CorrectRejection
154.643	0.2	ToneStart	Standard	55	0	0	1	n/a	CorrectRejection
155.893	1	TrialStart	Novel	56	0	0	1	n/a	CorrectRejection
156.893	0.2	ToneStart	Novel	56	0	0	1	n/a	CorrectRejection
158.143	2	TrialStart	Standard	57	0	0	1	n/a	CorrectRejection
160.143	0.2	ToneStart	Standard	57	0	0	1	n/a	CorrectRejection
161.393	1	TrialStart	Standard	58	0	0	1	n/a	CorrectRejection
162.393	0.2	ToneStart	Standard	58	0	0	1	n/a	CorrectRejection
163.643	1	TrialStart	Standard	59	0	0	1	n/a	CorrectRejection
164.643	0.2	ToneStart	Standard	59	0	0	1	n/a	CorrectRejection
165.892	1	TrialStart	Oddball	60	1	1	1	566	Hit
166.892	0.2	ToneStart	Oddball	60	1	1	1	566	Hit
168.142	1	TrialStart	Standard	61	0	0	1	n/a	CorrectRejection
169.142	0.2	ToneStart	Standard	61	0	0	1	n/a	CorrectRejection
170.392	2	TrialStart	Standard	62	0	0	1	n/a	CorrectRejection
172.392	0.2	ToneStart	Standard	62	0	0	1	n/a	CorrectRejection
173.642	2	TrialStart	Standard	63	0	0	1	n/a	CorrectRejection
175.642	0.2	ToneStart	Standard	63	0	0	1	n/a	CorrectRejection
176.891	1	TrialStart	Standard	64	0	0	1	n/a	CorrectRejection
177.891	0.2	ToneStart	Standard	64	0	0	1	n/a	CorrectRejection
179.141	1	TrialStart	Novel	65	0	0	1	n/a	CorrectRejection
180.145	0.2	ToneStart	Novel	65	0	0	1	n/a	CorrectRejection
181.391	2	TrialStart	Standard	66	0	0	1	n/a	CorrectRejection
183.391	0.2	ToneStart	Standard	66	0	0	1	n/a	CorrectRejection
184.641	1	TrialStart	Standard	67	0	0	1	n/a	CorrectRejection
185.641	0.2	ToneStart	Standard	67	0	0	1	n/a	CorrectRejection
186.891	2	TrialStart	Oddball	68	1	1	1	521	Hit
188.89	0.2	ToneStart	Oddball	68	1	1	1	521	Hit
190.14	1	TrialStart	Standard	69	0	0	1	n/a	CorrectRejection
191.14	0.2	ToneStart	Standard	69	0	0	1	n/a	CorrectRejection
192.39	1	TrialStart	Standard	70	0	0	1	n/a	CorrectRejection
193.39	0.2	ToneStart	Standard	70	0	0	1	n/a	CorrectRejection
194.64	2	TrialStart	Standard	71	0	0	1	n/a	CorrectRejection
196.64	0.2	ToneStart	Standard	71	0	0	1	n/a	CorrectRejection
197.89	2	TrialStart	Standard	72	0	0	1	n/a	CorrectRejection
199.889	0.2	ToneStart	Standard	72	0	0	1	n/a	CorrectRejection
201.139	1	TrialStart	Standard	73	0	0	1	n/a	CorrectRejection
202.139	0.2	ToneStart	Standard	73	0	0	1	n/a	CorrectRejection
203.389	2	TrialStart	Standard	74	0	0	1	n/a	CorrectRejection
205.389	0.2	ToneStart	Standard	74	0	0	1	n/a	CorrectRejection
206.639	2	TrialStart	Oddball	75	1	1	1	524	Hit
208.639	0.2	ToneStart	Oddball	75	1	1	1	524	Hit
209.889	2	TrialStart	Standard	76	0	0	1	n/a	CorrectRejection
211.888	0.2	ToneStart	Standard	76	0	0	1	n/a	CorrectRejection
213.138	1	TrialStart	Standard	77	0	0	1	n/a	CorrectRejection
214.138	0.2	ToneStart	Standard	77	0	0	1	n/a	CorrectRejection
215.388	2	TrialStart	Standard	78	0	0	1	n/a	CorrectRejection
217.388	0.2	ToneStart	Standard	78	0	0	1	n/a	CorrectRejection
218.638	1	TrialStart	Novel	79	0	0	1	n/a	CorrectRejection
219.638	0.2	ToneStart	Novel	79	0	0	1	n/a	CorrectRejection
220.888	2	TrialStart	Standard	80	0	0	1	n/a	CorrectRejection
222.887	0.2	ToneStart	Standard	80	0	0	1	n/a	CorrectRejection
224.137	2	TrialStart	Standard	81	0	0	1	n/a	CorrectRejection
226.137	0.2	ToneStart	Standard	81	0	0	1	n/a	CorrectRejection
227.387	2	TrialStart	Oddball	82	1	1	1	537	Hit
229.387	0.2	ToneStart	Oddball	82	1	1	1	537	Hit
230.637	2	TrialStart	Standard	83	0	0	1	n/a	CorrectRejection
232.636	0.2	ToneStart	Standard	83	0	0	1	n/a	CorrectRejection
233.886	2	TrialStart	Standard	84	0	0	1	n/a	CorrectRejection
235.886	0.2	ToneStart	Standard	84	0	0	1	n/a	CorrectRejection
237.136	2	TrialStart	Novel	85	0	0	1	n/a	CorrectRejection
239.136	0.2	ToneStart	Novel	85	0	0	1	n/a	CorrectRejection
240.386	1	TrialStart	Standard	86	0	0	1	n/a	CorrectRejection
241.386	0.2	ToneStart	Standard	86	0	0	1	n/a	CorrectRejection
242.636	2	TrialStart	Standard	87	0	0	1	n/a	CorrectRejection
244.635	0.2	ToneStart	Standard	87	0	0	1	n/a	CorrectRejection
245.885	1	TrialStart	Standard	88	0	0	1	n/a	CorrectRejection
246.885	0.2	ToneStart	Standard	88	0	0	1	n/a	CorrectRejection
248.135	1	TrialStart	Standard	89	0	0	1	n/a	CorrectRejection
249.135	0.2	ToneStart	Standard	89	0	0	1	n/a	CorrectRejection
250.385	2	TrialStart	Standard	90	0	0	1	n/a	CorrectRejection
252.385	0.2	ToneStart	Standard	90	0	0	1	n/a	CorrectRejection
253.635	1	TrialStart	Standard	91	0	0	1	n/a	CorrectRejection
254.635	0.2	ToneStart	Standard	91	0	0	1	n/a	CorrectRejection
255.884	1	TrialStart	Standard	92	0	0	1	n/a	CorrectRejection
256.884	0.2	ToneStart	Standard	92	0	0	1	n/a	CorrectRejection
258.134	2	TrialStart	Standard	93	0	0	1	n/a	CorrectRejection
260.134	0.2	ToneStart	Standard	93	0	0	1	n/a	CorrectRejection
261.384	1	TrialStart	Novel	94	0	0	1	n/a	CorrectRejection
262.384	0.2	ToneStart	Novel	94	0	0	1	n/a	CorrectRejection
263.634	2	TrialStart	Oddball	95	1	1	1	600	Hit
265.634	0.2	ToneStart	Oddball	95	1	1	1	600	Hit
266.883	2	TrialStart	Standard	96	0	0	1	n/a	CorrectRejection
268.883	0.2	ToneStart	Standard	96	0	0	1	n/a	CorrectRejection
270.134	1	TrialStart	Standard	97	0	0	1	n/a	CorrectRejection
271.133	0.2	ToneStart	Standard	97	0	0	1	n/a	CorrectRejection
272.383	2	TrialStart	Standard	98	0	0	1	n/a	CorrectRejection
274.383	0.2	ToneStart	Standard	98	0	0	1	n/a	CorrectRejection
275.633	1	TrialStart	Standard	99	0	0	1	n/a	CorrectRejection
276.633	0.2	ToneStart	Standard	99	0	0	1	n/a	CorrectRejection
277.882	1	TrialStart	Standard	100	0	0	1	n/a	CorrectRejection
278.882	0.2	ToneStart	Standard	100	0	0	1	n/a	CorrectRejection
280.132	1	TrialStart	Standard	101	0	0	1	n/a	CorrectRejection
281.132	0.2	ToneStart	Standard	101	0	0	1	n/a	CorrectRejection
282.382	1	TrialStart	Standard	102	0	0	1	n/a	CorrectRejection
283.383	0.2	ToneStart	Standard	102	0	0	1	n/a	CorrectRejection
284.632	1	TrialStart	Standard	103	0	0	1	n/a	CorrectRejection
285.632	0.2	ToneStart	Standard	103	0	0	1	n/a	CorrectRejection
286.882	1	TrialStart	Standard	104	0	0	1	n/a	CorrectRejection
287.882	0.2	ToneStart	Standard	104	0	0	1	n/a	CorrectRejection
289.131	1	TrialStart	Oddball	105	1	1	1	510	Hit
290.131	0.2	ToneStart	Oddball	105	1	1	1	510	Hit
291.381	2	TrialStart	Standard	106	0	0	1	n/a	CorrectRejection
293.381	0.2	ToneStart	Standard	106	0	0	1	n/a	CorrectRejection
294.631	1	TrialStart	Standard	107	0	0	1	n/a	CorrectRejection
295.631	0.2	ToneStart	Standard	107	0	0	1	n/a	CorrectRejection
296.881	1	TrialStart	Standard	108	0	0	1	n/a	CorrectRejection
297.881	0.2	ToneStart	Standard	108	0	0	1	n/a	CorrectRejection
299.131	1	TrialStart	Standard	109	0	0	1	n/a	CorrectRejection
300.131	0.2	ToneStart	Standard	109	0	0	1	n/a	CorrectRejection
301.38	2	TrialStart	Standard	110	0	0	1	n/a	CorrectRejection
303.38	0.2	ToneStart	Standard	110	0	0	1	n/a	CorrectRejection
304.63	1	TrialStart	Oddball	111	1	1	1	532	Hit
305.633	0.2	ToneStart	Oddball	111	1	1	1	532	Hit
306.88	1	TrialStart	Standard	112	0	0	1	n/a	CorrectRejection
307.881	0.2	ToneStart	Standard	112	0	0	1	n/a	CorrectRejection
309.13	2	TrialStart	Standard	113	0	0	1	n/a	CorrectRejection
311.13	0.2	ToneStart	Standard	113	0	0	1	n/a	CorrectRejection
312.379	2	TrialStart	Standard	114	0	0	1	n/a	CorrectRejection
314.396	0.2	ToneStart	Standard	114	0	0	1	n/a	CorrectRejection
315.646	2	TrialStart	Standard	115	0	0	1	n/a	CorrectRejection
317.646	0.2	ToneStart	Standard	115	0	0	1	n/a	CorrectRejection
318.895	1	TrialStart	Standard	116	0	0	1	n/a	CorrectRejection
319.895	0.2	ToneStart	Standard	116	0	0	1	n/a	CorrectRejection
321.145	2	TrialStart	Standard	117	0	0	1	n/a	CorrectRejection
323.145	0.2	ToneStart	Standard	117	0	0	1	n/a	CorrectRejection
324.395	1	TrialStart	Standard	118	0	0	1	n/a	CorrectRejection
325.395	0.2	ToneStart	Standard	118	0	0	1	n/a	CorrectRejection
326.645	1	TrialStart	Standard	119	0	0	1	n/a	CorrectRejection
327.645	0.2	ToneStart	Standard	119	0	0	1	n/a	CorrectRejection
328.895	1	TrialStart	Standard	120	0	0	1	n/a	CorrectRejection
329.895	0.2	ToneStart	Standard	120	0	0	1	n/a	CorrectRejection
