onset	duration	TrialEvent	ToneLabel	Trial	CRESP	RESP	ACC	RT	Code
0.061	2	TrialStart	Standard	1	0	0	1	n/a	CorrectRejection
2.06	0.2	ToneStart	Standard	1	0	0	1	n/a	CorrectRejection
3.344	2	TrialStart	Standard	2	0	0	1	n/a	CorrectRejection
5.343	0.2	ToneStart	Standard	2	0	0	1	n/a	CorrectRejection
6.61	2	TrialStart	Standard	3	0	0	1	n/a	CorrectRejection
8.61	0.2	ToneStart	Standard	3	0	0	1	n/a	CorrectRejection
9.876	2	TrialStart	Novel	4	0	0	1	n/a	CorrectRejection
11.876	0.2	ToneStart	Novel	4	0	0	1	n/a	CorrectRejection
13.143	1	TrialStart	Standard	5	0	0	1	n/a	CorrectRejection
14.159	0.2	ToneStart	Standard	5	0	0	1	n/a	CorrectRejection
15.426	1	TrialStart	Standard	6	0	0	1	n/a	CorrectRejection
16.426	0.2	ToneStart	Standard	6	0	0	1	n/a	CorrectRejection
17.692	2	TrialStart	Standard	7	0	0	1	n/a	CorrectRejection
19.692	0.2	ToneStart	Standard	7	0	0	1	n/a	CorrectRejection
20.958	1	TrialStart	Standard	8	0	0	1	n/a	CorrectRejection
21.964	0.2	ToneStart	Standard	8	0	0	1	n/a	CorrectRejection
23.225	1	TrialStart	Standard	9	0	0	1	n/a	CorrectRejection
24.225	0.2	ToneStart	Standard	9	0	0	1	n/a	CorrectRejection
25.491	1	TrialStart	Standard	10	0	0	1	n/a	CorrectRejection
26.491	0.2	ToneStart	Standard	10	0	0	1	n/a	CorrectRejection
27.774	1	TrialStart	Oddball	11	1	1	1	754	Hit
28.868	0.2	ToneStart	Oddball	11	1	1	1	754	Hit
30.124	1	TrialStart	Standard	12	0	0	1	n/a	CorrectRejection
31.124	0.2	ToneStart	Standard	12	0	0	1	n/a	CorrectRejection
32.391	2	TrialStart	Standard	13	0	0	1	n/a	CorrectRejection
34.39	0.2	ToneStart	Standard	13	0	0	1	n/a	CorrectRejection
35.657	1	TrialStart	Standard	14	0	0	1	n/a	CorrectRejection
36.664	0.2	ToneStart	Standard	14	0	0	1	n/a	CorrectRejection
37.923	2	TrialStart	Standard	15	0	0	1	n/a	CorrectRejection
39.923	0.2	ToneStart	Standard	15	0	0	1	n/a	CorrectRejection
41.19	2	TrialStart	Standard	16	0	0	1	n/a	CorrectRejection
43.19	0.2	ToneStart	Standard	16	0	0	1	n/a	CorrectRejection
44.456	1	TrialStart	Novel	17	0	0	1	n/a	CorrectRejection
45.473	0.2	ToneStart	Novel	17	0	0	1	n/a	CorrectRejection
46.739	2	TrialStart	Standard	18	0	0	1	n/a	CorrectRejection
48.739	0.2	ToneStart	Standard	18	0	0	1	n/a	CorrectRejection
50.005	2	TrialStart	Standard	19	0	0	1	n/a	CorrectRejection
52.005	0.2	ToneStart	Standard	19	0	0	1	n/a	CorrectRejection
53.272	1	TrialStart	Standard	20	0	0	1	n/a	CorrectRejection
54.272	0.2	ToneStart	Standard	20	0	0	1	n/a	CorrectRejection
55.539	2	TrialStart	Standard	21	0	0	1	n/a	CorrectRejection
57.538	0.2	ToneStart	Standard	21	0	0	1	n/a	CorrectRejection
58.805	2	TrialStart	Standard	22	0	0	1	n/a	CorrectRejection
60.804	0.2	ToneStart	Standard	22	0	0	1	n/a	CorrectRejection
62.071	1	TrialStart	Novel	23	0	0	1	n/a	CorrectRejection
63.071	0.2	ToneStart	Novel	23	0	0	1	n/a	CorrectRejection
64.337	2	TrialStart	Oddball	24	1	1	1	990	Hit
66.337	0.2	ToneStart	Oddball	24	1	1	1	990	Hit
67.604	2	TrialStart	Standard	25	0	0	1	n/a	CorrectRejection
69.603	0.2	ToneStart	Standard	25	0	0	1	n/a	CorrectRejection
70.87	2	TrialStart	Standard	26	0	0	1	n/a	CorrectRejection
72.87	0.2	ToneStart	Standard	26	0	0	1	n/a	CorrectRejection
74.136	1	TrialStart	Standard	27	0	0	1	n/a	CorrectRejection
75.137	0.2	ToneStart	Standard	27	0	0	1	n/a	CorrectRejection
76.403	2	TrialStart	Standard	28	0	0	1	n/a	CorrectRejection
78.403	0.2	ToneStart	Standard	28	0	0	1	n/a	CorrectRejection
79.669	2	TrialStart	Oddball	29	1	1	1	738	Hit
81.669	0.2	ToneStart	Oddball	29	1	1	1	738	Hit
82.936	1	TrialStart	Novel	30	0	0	1	n/a	CorrectRejection
83.952	0.2	ToneStart	Novel	30	0	0	1	n/a	CorrectRejection
85.219	1	TrialStart	Standard	31	0	0	1	n/a	CorrectRejection
86.235	0.2	ToneStart	Standard	31	0	0	1	n/a	CorrectRejection
87.502	2	TrialStart	Standard	32	0	0	1	n/a	CorrectRejection
89.501	0.2	ToneStart	Standard	32	0	0	1	n/a	CorrectRejection
90.768	1	TrialStart	Novel	33	0	0	1	n/a	CorrectRejection
91.768	0.2	ToneStart	Novel	33	0	0	1	n/a	CorrectRejection
93.034	2	TrialStart	Standard	34	0	0	1	n/a	CorrectRejection
95.034	0.2	ToneStart	Standard	34	0	0	1	n/a	CorrectRejection
96.301	2	TrialStart	Standard	35	0	0	1	n/a	CorrectRejection
98.3	0.2	ToneStart	Standard	35	0	0	1	n/a	CorrectRejection
99.567	1	TrialStart	Standard	36	0	0	1	n/a	CorrectRejection
100.568	0.2	ToneStart	Standard	36	0	0	1	n/a	CorrectRejection
101.833	1	TrialStart	Standard	37	0	0	1	n/a	CorrectRejection
102.833	0.2	ToneStart	Standard	37	0	0	1	n/a	CorrectRejection
104.1	2	TrialStart	Standard	38	0	0	1	n/a	CorrectRejection
106.1	0.2	ToneStart	Standard	38	0	0	1	n/a	CorrectRejection
107.366	2	TrialStart	Oddball	39	1	1	1	868	Hit
109.366	0.2	ToneStart	Oddball	39	1	1	1	868	Hit
110.633	2	TrialStart	Standard	40	0	0	1	n/a	CorrectRejection
112.632	0.2	ToneStart	Standard	40	0	0	1	n/a	CorrectRejection
113.899	2	TrialStart	Standard	41	0	0	1	n/a	CorrectRejection
115.899	0.2	ToneStart	Standard	41	0	0	1	n/a	CorrectRejection
117.165	1	TrialStart	Standard	42	0	0	1	n/a	CorrectRejection
118.182	0.2	ToneStart	Standard	42	0	0	1	n/a	CorrectRejection
119.448	1	TrialStart	Standard	43	0	0	1	n/a	CorrectRejection
120.448	0.2	ToneStart	Standard	43	0	0	1	n/a	CorrectRejection
121.715	1	TrialStart	Novel	44	0	0	1	n/a	CorrectRejection
122.719	0.2	ToneStart	Novel	44	0	0	1	n/a	CorrectRejection
123.981	1	TrialStart	Standard	45	0	0	1	n/a	CorrectRejection
124.982	0.2	ToneStart	Standard	45	0	0	1	n/a	CorrectRejection
126.248	2	TrialStart	Standard	46	0	0	1	n/a	CorrectRejection
128.247	0.2	ToneStart	Standard	46	0	0	1	n/a	CorrectRejection
129.514	2	TrialStart	Standard	47	0	0	1	n/a	CorrectRejection
131.514	0.2	ToneStart	Standard	47	0	0	1	n/a	CorrectRejection
132.78	1	TrialStart	Standard	48	0	0	1	n/a	CorrectRejection
133.797	0.2	ToneStart	Standard	48	0	0	1	n/a	CorrectRejection
135.063	2	TrialStart	Oddball	49	1	1	1	762	Hit
137.063	0.2	ToneStart	Oddball	49	1	1	1	762	Hit
138.33	2	TrialStart	Standard	50	0	0	1	n/a	CorrectRejection
140.33	0.2	ToneStart	Standard	50	0	0	1	n/a	CorrectRejection
141.596	2	TrialStart	Standard	51	0	0	1	n/a	CorrectRejection
143.596	0.2	ToneStart	Standard	51	0	0	1	n/a	CorrectRejection
144.862	2	TrialStart	Standard	52	0	0	1	n/a	CorrectRejection
146.862	0.2	ToneStart	Standard	52	0	0	1	n/a	CorrectRejection
148.129	2	TrialStart	Novel	53	0	0	1	n/a	CorrectRejection
150.128	0.2	ToneStart	Novel	53	0	0	1	n/a	CorrectRejection
151.395	2	TrialStart	Standard	54	0	0	1	n/a	CorrectRejection
153.395	0.2	ToneStart	Standard	54	0	0	1	n/a	CorrectRejection
154.678	1	TrialStart	Standard	55	0	0	1	n/a	CorrectRejection
155.678	0.2	ToneStart	Standard	55	0	0	1	n/a	CorrectRejection
156.944	1	TrialStart	Novel	56	0	0	1	n/a	CorrectRejection
157.961	0.2	ToneStart	Novel	56	0	0	1	n/a	CorrectRejection
159.228	2	TrialStart	Standard	57	0	0	1	n/a	CorrectRejection
161.227	0.2	ToneStart	Standard	57	0	0	1	n/a	CorrectRejection
162.494	1	TrialStart	Standard	58	0	0	1	n/a	CorrectRejection
163.5	0.2	ToneStart	Standard	58	0	0	1	n/a	CorrectRejection
164.76	1	TrialStart	Standard	59	0	0	1	n/a	CorrectRejection
165.76	0.2	ToneStart	Standard	59	0	0	1	n/a	CorrectRejection
167.027	1	TrialStart	Oddball	60	1	1	1	761	Hit
168.027	0.2	ToneStart	Oddball	60	1	1	1	761	Hit
169.293	1	TrialStart	Standard	61	0	0	1	n/a	CorrectRejection
170.298	0.2	ToneStart	Standard	61	0	0	1	n/a	CorrectRejection
171.56	2	TrialStart	Standard	62	0	0	1	n/a	CorrectRejection
173.559	0.2	ToneStart	Standard	62	0	0	1	n/a	CorrectRejection
174.826	2	TrialStart	Standard	63	0	0	1	n/a	CorrectRejection
176.826	0.2	ToneStart	Standard	63	0	0	1	n/a	CorrectRejection
178.092	1	TrialStart	Standard	64	0	0	1	n/a	CorrectRejection
179.095	0.2	ToneStart	Standard	64	0	0	1	n/a	CorrectRejection
180.359	1	TrialStart	Novel	65	0	1	0	921	FalseAlarm
181.36	0.2	ToneStart	Novel	65	0	1	0	921	FalseAlarm
182.625	2	TrialStart	Standard	66	0	0	1	n/a	CorrectRejection
184.625	0.2	ToneStart	Standard	66	0	0	1	n/a	CorrectRejection
185.892	1	TrialStart	Standard	67	0	0	1	n/a	CorrectRejection
186.908	0.2	ToneStart	Standard	67	0	0	1	n/a	CorrectRejection
188.175	2	TrialStart	Oddball	68	1	1	1	1158	Hit
190.174	0.2	ToneStart	Oddball	68	1	1	1	1158	Hit
191.441	1	TrialStart	Standard	69	0	0	1	n/a	CorrectRejection
192.441	0.2	ToneStart	Standard	69	0	0	1	n/a	CorrectRejection
193.707	1	TrialStart	Standard	70	0	0	1	n/a	CorrectRejection
194.712	0.2	ToneStart	Standard	70	0	0	1	n/a	CorrectRejection
195.974	2	TrialStart	Standard	71	0	0	1	n/a	CorrectRejection
197.974	0.2	ToneStart	Standard	71	0	0	1	n/a	CorrectRejection
199.24	2	TrialStart	Standard	72	0	0	1	n/a	CorrectRejection
201.24	0.2	ToneStart	Standard	72	0	0	1	n/a	CorrectRejection
202.506	1	TrialStart	Standard	73	0	0	1	n/a	CorrectRejection
203.51	0.2	ToneStart	Standard	73	0	0	1	n/a	CorrectRejection
204.773	2	TrialStart	Standard	74	0	0	1	n/a	CorrectRejection
206.773	0.2	ToneStart	Standard	74	0	0	1	n/a	CorrectRejection
208.039	2	TrialStart	Oddball	75	1	1	1	588	Hit
210.039	0.2	ToneStart	Oddball	75	1	1	1	588	Hit
211.306	2	TrialStart	Standard	76	0	0	1	n/a	CorrectRejection
213.305	0.2	ToneStart	Standard	76	0	0	1	n/a	CorrectRejection
214.572	1	TrialStart	Standard	77	0	0	1	n/a	CorrectRejection
215.588	0.2	ToneStart	Standard	77	0	0	1	n/a	CorrectRejection
216.855	2	TrialStart	Standard	78	0	0	1	n/a	CorrectRejection
218.855	0.2	ToneStart	Standard	78	0	0	1	n/a	CorrectRejection
220.121	1	TrialStart	Novel	79	0	0	1	n/a	CorrectRejection
221.122	0.2	ToneStart	Novel	79	0	0	1	n/a	CorrectRejection
222.404	2	TrialStart	Standard	80	0	0	1	n/a	CorrectRejection
224.404	0.2	ToneStart	Standard	80	0	0	1	n/a	CorrectRejection
225.671	2	TrialStart	Standard	81	0	0	1	n/a	CorrectRejection
227.671	0.2	ToneStart	Standard	81	0	0	1	n/a	CorrectRejection
228.937	2	TrialStart	Oddball	82	1	0	0	n/a	Miss
230.937	0.2	ToneStart	Oddball	82	1	0	0	n/a	Miss
232.205	2	TrialStart	Standard	83	0	0	1	n/a	CorrectRejection
234.203	0.2	ToneStart	Standard	83	0	0	1	n/a	CorrectRejection
235.47	2	TrialStart	Standard	84	0	0	1	n/a	CorrectRejection
237.47	0.2	ToneStart	Standard	84	0	0	1	n/a	CorrectRejection
238.736	2	TrialStart	Novel	85	0	0	1	n/a	CorrectRejection
240.736	0.2	ToneStart	Novel	85	0	0	1	n/a	CorrectRejection
242.002	1	TrialStart	Standard	86	0	0	1	n/a	CorrectRejection
243.003	0.2	ToneStart	Standard	86	0	0	1	n/a	CorrectRejection
244.269	2	TrialStart	Standard	87	0	0	1	n/a	CorrectRejection
246.269	0.2	ToneStart	Standard	87	0	0	1	n/a	CorrectRejection
247.535	1	TrialStart	Standard	88	0	0	1	n/a	CorrectRejection
248.535	0.2	ToneStart	Standard	88	0	0	1	n/a	CorrectRejection
249.802	1	TrialStart	Standard	89	0	0	1	n/a	CorrectRejection
250.81	0.2	ToneStart	Standard	89	0	0	1	n/a	CorrectRejection
252.068	2	TrialStart	Standard	90	0	0	1	n/a	CorrectRejection
254.068	0.2	ToneStart	Standard	90	0	0	1	n/a	CorrectRejection
255.335	1	TrialStart	Standard	91	0	0	1	n/a	CorrectRejection
256.334	0.2	ToneStart	Standard	91	0	0	1	n/a	CorrectRejection
257.601	1	TrialStart	Standard	92	0	0	1	n/a	CorrectRejection
258.601	0.2	ToneStart	Standard	92	0	0	1	n/a	CorrectRejection
259.867	2	TrialStart	Standard	93	0	0	1	n/a	CorrectRejection
261.867	0.2	ToneStart	Standard	93	0	0	1	n/a	CorrectRejection
263.134	1	TrialStart	Novel	94	0	0	1	n/a	CorrectRejection
264.15	0.2	ToneStart	Novel	94	0	0	1	n/a	CorrectRejection
265.417	2	TrialStart	Oddball	95	1	1	1	1012	Hit
267.416	0.2	ToneStart	Oddball	95	1	1	1	1012	Hit
268.683	2	TrialStart	Standard	96	0	0	1	n/a	CorrectRejection
270.683	0.2	ToneStart	Standard	96	0	0	1	n/a	CorrectRejection
271.949	1	TrialStart	Standard	97	0	0	1	n/a	CorrectRejection
272.951	0.2	ToneStart	Standard	97	0	0	1	n/a	CorrectRejection
274.216	2	TrialStart	Standard	98	0	0	1	n/a	CorrectRejection
276.216	0.2	ToneStart	Standard	98	0	0	1	n/a	CorrectRejection
277.482	1	TrialStart	Standard	99	0	0	1	n/a	CorrectRejection
278.487	0.2	ToneStart	Standard	99	0	0	1	n/a	CorrectRejection
279.749	1	TrialStart	Standard	100	0	0	1	n/a	CorrectRejection
280.748	0.2	ToneStart	Standard	100	0	0	1	n/a	CorrectRejection
282.015	1	TrialStart	Standard	101	0	0	1	n/a	CorrectRejection
283.019	0.2	ToneStart	Standard	101	0	0	1	n/a	CorrectRejection
284.281	1	TrialStart	Standard	102	0	0	1	n/a	CorrectRejection
285.288	0.2	ToneStart	Standard	102	0	0	1	n/a	CorrectRejection
286.548	1	TrialStart	Standard	103	0	0	1	n/a	CorrectRejection
287.548	0.2	ToneStart	Standard	103	0	0	1	n/a	CorrectRejection
288.814	1	TrialStart	Standard	104	0	0	1	n/a	CorrectRejection
289.815	0.2	ToneStart	Standard	104	0	0	1	n/a	CorrectRejection
291.081	1	TrialStart	Oddball	105	1	1	1	793	Hit
292.085	0.2	ToneStart	Oddball	105	1	1	1	793	Hit
293.348	2	TrialStart	Standard	106	0	0	1	n/a	CorrectRejection
295.347	0.2	ToneStart	Standard	106	0	0	1	n/a	CorrectRejection
296.614	1	TrialStart	Standard	107	0	0	1	n/a	CorrectRejection
297.613	0.2	ToneStart	Standard	107	0	0	1	n/a	CorrectRejection
298.88	1	TrialStart	Standard	108	0	0	1	n/a	CorrectRejection
299.882	0.2	ToneStart	Standard	108	0	0	1	n/a	CorrectRejection
301.146	1	TrialStart	Standard	109	0	0	1	n/a	CorrectRejection
302.146	0.2	ToneStart	Standard	109	0	0	1	n/a	CorrectRejection
303.413	2	TrialStart	Standard	110	0	0	1	n/a	CorrectRejection
305.413	0.2	ToneStart	Standard	110	0	0	1	n/a	CorrectRejection
306.679	1	TrialStart	Oddball	111	1	1	1	792	Hit
307.683	0.2	ToneStart	Oddball	111	1	1	1	792	Hit
308.946	1	TrialStart	Standard	112	0	0	1	n/a	CorrectRejection
309.945	0.2	ToneStart	Standard	112	0	0	1	n/a	CorrectRejection
311.212	2	TrialStart	Standard	113	0	0	1	n/a	CorrectRejection
313.212	0.2	ToneStart	Standard	113	0	0	1	n/a	CorrectRejection
314.478	2	TrialStart	Standard	114	0	0	1	n/a	CorrectRejection
316.478	0.2	ToneStart	Standard	114	0	0	1	n/a	CorrectRejection
317.745	2	TrialStart	Standard	115	0	0	1	n/a	CorrectRejection
319.744	0.2	ToneStart	Standard	115	0	0	1	n/a	CorrectRejection
321.011	1	TrialStart	Standard	116	0	0	1	n/a	CorrectRejection
322.011	0.2	ToneStart	Standard	116	0	0	1	n/a	CorrectRejection
323.277	2	TrialStart	Standard	117	0	0	1	n/a	CorrectRejection
325.277	0.2	ToneStart	Standard	117	0	0	1	n/a	CorrectRejection
326.544	1	TrialStart	Standard	118	0	0	1	n/a	CorrectRejection
327.56	0.2	ToneStart	Standard	118	0	0	1	n/a	CorrectRejection
328.827	1	TrialStart	Standard	119	0	0	1	n/a	CorrectRejection
329.827	0.2	ToneStart	Standard	119	0	0	1	n/a	CorrectRejection
331.093	1	TrialStart	Standard	120	0	0	1	n/a	CorrectRejection
332.098	0.2	ToneStart	Standard	120	0	0	1	n/a	CorrectRejection
