onset	duration	TrialEvent	ToneLabel	Trial	CRESP	RESP	ACC	RT	Code
0.041	2	TrialStart	Standard	1	0	0	1	n/a	CorrectRejection
2.041	0.2	ToneStart	Standard	1	0	0	1	n/a	CorrectRejection
3.291	2	TrialStart	Standard	2	0	0	1	n/a	CorrectRejection
5.291	0.2	ToneStart	Standard	2	0	0	1	n/a	CorrectRejection
6.541	2	TrialStart	Standard	3	0	0	1	n/a	CorrectRejection
8.54	0.2	ToneStart	Standard	3	0	0	1	n/a	CorrectRejection
9.79	2	TrialStart	Novel	4	0	0	1	n/a	CorrectRejection
11.79	0.2	ToneStart	Novel	4	0	0	1	n/a	CorrectRejection
13.04	1	TrialStart	Standard	5	0	0	1	n/a	CorrectRejection
14.04	0.2	ToneStart	Standard	5	0	0	1	n/a	CorrectRejection
15.29	1	TrialStart	Standard	6	0	0	1	n/a	CorrectRejection
16.289	0.2	ToneStart	Standard	6	0	0	1	n/a	CorrectRejection
17.539	2	TrialStart	Standard	7	0	0	1	n/a	CorrectRejection
19.539	0.2	ToneStart	Standard	7	0	0	1	n/a	CorrectRejection
20.789	1	TrialStart	Standard	8	0	0	1	n/a	CorrectRejection
21.789	0.2	ToneStart	Standard	8	0	0	1	n/a	CorrectRejection
23.039	1	TrialStart	Standard	9	0	0	1	n/a	CorrectRejection
24.039	0.2	ToneStart	Standard	9	0	0	1	n/a	CorrectRejection
25.288	1	TrialStart	Standard	10	0	0	1	n/a	CorrectRejection
26.288	0.2	ToneStart	Standard	10	0	0	1	n/a	CorrectRejection
27.538	1	TrialStart	Oddball	11	1	1	1	401	Hit
28.538	0.2	ToneStart	Oddball	11	1	1	1	401	Hit
29.788	1	TrialStart	Standard	12	0	0	1	n/a	CorrectRejection
30.788	0.2	ToneStart	Standard	12	0	0	1	n/a	CorrectRejection
32.038	2	TrialStart	Standard	13	0	0	1	n/a	CorrectRejection
34.038	0.2	ToneStart	Standard	13	0	0	1	n/a	CorrectRejection
35.287	1	TrialStart	Standard	14	0	0	1	n/a	CorrectRejection
36.287	0.2	ToneStart	Standard	14	0	0	1	n/a	CorrectRejection
37.537	2	TrialStart	Standard	15	0	0	1	n/a	CorrectRejection
39.537	0.2	ToneStart	Standard	15	0	0	1	n/a	CorrectRejection
40.787	2	TrialStart	Standard	16	0	0	1	n/a	CorrectRejection
42.787	0.2	ToneStart	Standard	16	0	0	1	n/a	CorrectRejection
44.036	1	TrialStart	Novel	17	0	0	1	n/a	CorrectRejection
45.037	0.2	ToneStart	Novel	17	0	0	1	n/a	CorrectRejection
46.286	2	TrialStart	Standard	18	0	0	1	n/a	CorrectRejection
48.286	0.2	ToneStart	Standard	18	0	0	1	n/a	CorrectRejection
49.536	2	TrialStart	Standard	19	0	0	1	n/a	CorrectRejection
51.536	0.2	ToneStart	Standard	19	0	0	1	n/a	CorrectRejection
52.786	1	TrialStart	Standard	20	0	0	1	n/a	CorrectRejection
53.785	0.2	ToneStart	Standard	20	0	0	1	n/a	CorrectRejection
55.035	2	TrialStart	Standard	21	0	0	1	n/a	CorrectRejection
57.035	0.2	ToneStart	Standard	21	0	0	1	n/a	CorrectRejection
58.285	2	TrialStart	Standard	22	0	0	1	n/a	CorrectRejection
60.285	0.2	ToneStart	Standard	22	0	0	1	n/a	CorrectRejection
61.535	1	TrialStart	Novel	23	0	0	1	n/a	CorrectRejection
62.535	0.2	ToneStart	Novel	23	0	0	1	n/a	CorrectRejection
63.784	2	TrialStart	Oddball	24	1	1	1	475	Hit
65.784	0.2	ToneStart	Oddball	24	1	1	1	475	Hit
67.034	2	TrialStart	Standard	25	0	0	1	n/a	CorrectRejection
69.034	0.2	ToneStart	Standard	25	0	0	1	n/a	CorrectRejection
70.284	2	TrialStart	Standard	26	0	0	1	n/a	CorrectRejection
72.283	0.2	ToneStart	Standard	26	0	0	1	n/a	CorrectRejection
73.533	1	TrialStart	Standard	27	0	0	1	n/a	CorrectRejection
74.533	0.2	ToneStart	Standard	27	0	0	1	n/a	CorrectRejection
75.783	2	TrialStart	Standard	28	0	0	1	n/a	CorrectRejection
77.783	0.2	ToneStart	Standard	28	0	0	1	n/a	CorrectRejection
79.049	2	TrialStart	Oddball	29	1	1	1	334	Hit
81.049	0.2	ToneStart	Oddball	29	1	1	1	334	Hit
82.299	1	TrialStart	Novel	30	0	0	1	n/a	CorrectRejection
83.299	0.2	ToneStart	Novel	30	0	0	1	n/a	CorrectRejection
84.549	1	TrialStart	Standard	31	0	0	1	n/a	CorrectRejection
85.549	0.2	ToneStart	Standard	31	0	0	1	n/a	CorrectRejection
86.799	2	TrialStart	Standard	32	0	0	1	n/a	CorrectRejection
88.798	0.2	ToneStart	Standard	32	0	0	1	n/a	CorrectRejection
90.048	1	TrialStart	Novel	33	0	0	1	n/a	CorrectRejection
91.048	0.2	ToneStart	Novel	33	0	0	1	n/a	CorrectRejection
92.298	2	TrialStart	Standard	34	0	0	1	n/a	CorrectRejection
94.298	0.2	ToneStart	Standard	34	0	0	1	n/a	CorrectRejection
95.548	2	TrialStart	Standard	35	0	0	1	n/a	CorrectRejection
97.547	0.2	ToneStart	Standard	35	0	0	1	n/a	CorrectRejection
98.797	1	TrialStart	Standard	36	0	0	1	n/a	CorrectRejection
99.797	0.2	ToneStart	Standard	36	0	0	1	n/a	CorrectRejection
101.047	1	TrialStart	Standard	37	0	0	1	n/a	CorrectRejection
102.047	0.2	ToneStart	Standard	37	0	0	1	n/a	CorrectRejection
103.297	2	TrialStart	Standard	38	0	0	1	n/a	CorrectRejection
105.297	0.2	ToneStart	Standard	38	0	0	1	n/a	CorrectRejection
106.546	2	TrialStart	Oddball	39	1	1	1	628	Hit
108.546	0.2	ToneStart	Oddball	39	1	1	1	628	Hit
109.796	2	TrialStart	Standard	40	0	0	1	n/a	CorrectRejection
111.796	0.2	ToneStart	Standard	40	0	0	1	n/a	CorrectRejection
113.046	2	TrialStart	Standard	41	0	0	1	n/a	CorrectRejection
115.046	0.2	ToneStart	Standard	41	0	0	1	n/a	CorrectRejection
116.295	1	TrialStart	Standard	42	0	0	1	n/a	CorrectRejection
117.295	0.2	ToneStart	Standard	42	0	0	1	n/a	CorrectRejection
118.545	1	TrialStart	Standard	43	0	0	1	n/a	CorrectRejection
119.548	0.2	ToneStart	Standard	43	0	0	1	n/a	CorrectRejection
120.812	1	TrialStart	Novel	44	0	0	1	n/a	CorrectRejection
121.812	0.2	ToneStart	Novel	44	0	0	1	n/a	CorrectRejection
123.061	1	TrialStart	Standard	45	0	0	1	n/a	CorrectRejection
124.061	0.2	ToneStart	Standard	45	0	0	1	n/a	CorrectRejection
125.311	2	TrialStart	Standard	46	0	0	1	n/a	CorrectRejection
127.311	0.2	ToneStart	Standard	46	0	0	1	n/a	CorrectRejection
128.561	2	TrialStart	Standard	47	0	0	1	n/a	CorrectRejection
130.561	0.2	ToneStart	Standard	47	0	0	1	n/a	CorrectRejection
131.81	1	TrialStart	Standard	48	0	0	1	n/a	CorrectRejection
132.81	0.2	ToneStart	Standard	48	0	0	1	n/a	CorrectRejection
134.06	2	TrialStart	Oddball	49	1	1	1	416	Hit
136.06	0.2	ToneStart	Oddball	49	1	1	1	416	Hit
137.31	2	TrialStart	Standard	50	0	0	1	n/a	CorrectRejection
139.31	0.2	ToneStart	Standard	50	0	0	1	n/a	CorrectRejection
140.56	2	TrialStart	Standard	51	0	0	1	n/a	CorrectRejection
142.559	0.2	ToneStart	Standard	51	0	0	1	n/a	CorrectRejection
143.809	2	TrialStart	Standard	52	0	0	1	n/a	CorrectRejection
145.809	0.2	ToneStart	Standard	52	0	0	1	n/a	CorrectRejection
147.059	2	TrialStart	Novel	53	0	0	1	n/a	CorrectRejection
149.059	0.2	ToneStart	Novel	53	0	0	1	n/a	CorrectRejection
150.309	2	TrialStart	Standard	54	0	0	1	n/a	CorrectRejection
152.308	0.2	ToneStart	Standard	54	0	0	1	n/a	CorrectRejection
153.558	1	TrialStart	Standard	55	0	0	1	n/a	CorrectRejection
154.558	0.2	ToneStart	Standard	55	0	0	1	n/a	CorrectRejection
155.808	1	TrialStart	Novel	56	0	0	1	n/a	CorrectRejection
156.808	0.2	ToneStart	Novel	56	0	0	1	n/a	CorrectRejection
158.058	2	TrialStart	Standard	57	0	0	1	n/a	CorrectRejection
160.057	0.2	ToneStart	Standard	57	0	0	1	n/a	CorrectRejection
161.307	1	TrialStart	Standard	58	0	0	1	n/a	CorrectRejection
162.307	0.2	ToneStart	Standard	58	0	0	1	n/a	CorrectRejection
163.557	1	TrialStart	Standard	59	0	0	1	n/a	CorrectRejection
164.557	0.2	ToneStart	Standard	59	0	0	1	n/a	CorrectRejection
165.807	1	TrialStart	Oddball	60	1	1	1	449	Hit
166.807	0.2	ToneStart	Oddball	60	1	1	1	449	Hit
168.057	1	TrialStart	Standard	61	0	0	1	n/a	CorrectRejection
169.056	0.2	ToneStart	Standard	61	0	0	1	n/a	CorrectRejection
170.306	2	TrialStart	Standard	62	0	0	1	n/a	CorrectRejection
172.306	0.2	ToneStart	Standard	62	0	0	1	n/a	CorrectRejection
173.556	2	TrialStart	Standard	63	0	0	1	n/a	CorrectRejection
175.556	0.2	ToneStart	Standard	63	0	0	1	n/a	CorrectRejection
176.806	1	TrialStart	Standard	64	0	0	1	n/a	CorrectRejection
177.806	0.2	ToneStart	Standard	64	0	0	1	n/a	CorrectRejection
179.055	1	TrialStart	Novel	65	0	0	1	n/a	CorrectRejection
180.055	0.2	ToneStart	Novel	65	0	0	1	n/a	CorrectRejection
181.305	2	TrialStart	Standard	66	0	0	1	n/a	CorrectRejection
183.305	0.2	ToneStart	Standard	66	0	0	1	n/a	CorrectRejection
184.555	1	TrialStart	Standard	67	0	0	1	n/a	CorrectRejection
185.555	0.2	ToneStart	Standard	67	0	0	1	n/a	CorrectRejection
186.805	2	TrialStart	Oddball	68	1	1	1	399	Hit
188.804	0.2	ToneStart	Oddball	68	1	1	1	399	Hit
190.054	1	TrialStart	Standard	69	0	0	1	n/a	CorrectRejection
191.054	0.2	ToneStart	Standard	69	0	0	1	n/a	CorrectRejection
192.304	1	TrialStart	Standard	70	0	0	1	n/a	CorrectRejection
193.304	0.2	ToneStart	Standard	70	0	0	1	n/a	CorrectRejection
194.554	2	TrialStart	Standard	71	0	0	1	n/a	CorrectRejection
196.554	0.2	ToneStart	Standard	71	0	0	1	n/a	CorrectRejection
197.803	2	TrialStart	Standard	72	0	0	1	n/a	CorrectRejection
199.803	0.2	ToneStart	Standard	72	0	0	1	n/a	CorrectRejection
201.053	1	TrialStart	Standard	73	0	0	1	n/a	CorrectRejection
202.053	0.2	ToneStart	Standard	73	0	0	1	n/a	CorrectRejection
203.303	2	TrialStart	Standard	74	0	0	1	n/a	CorrectRejection
205.303	0.2	ToneStart	Standard	74	0	0	1	n/a	CorrectRejection
206.552	2	TrialStart	Oddball	75	1	1	1	506	Hit
208.552	0.2	ToneStart	Oddball	75	1	1	1	506	Hit
209.802	2	TrialStart	Standard	76	0	0	1	n/a	CorrectRejection
211.802	0.2	ToneStart	Standard	76	0	0	1	n/a	CorrectRejection
213.052	1	TrialStart	Standard	77	0	0	1	n/a	CorrectRejection
214.052	0.2	ToneStart	Standard	77	0	0	1	n/a	CorrectRejection
215.302	2	TrialStart	Standard	78	0	0	1	n/a	CorrectRejection
217.301	0.2	ToneStart	Standard	78	0	0	1	n/a	CorrectRejection
218.551	1	TrialStart	Novel	79	0	0	1	n/a	CorrectRejection
219.551	0.2	ToneStart	Novel	79	0	0	1	n/a	CorrectRejection
220.801	2	TrialStart	Standard	80	0	0	1	n/a	CorrectRejection
222.801	0.2	ToneStart	Standard	80	0	0	1	n/a	CorrectRejection
224.051	2	TrialStart	Standard	81	0	0	1	n/a	CorrectRejection
226.05	0.2	ToneStart	Standard	81	0	0	1	n/a	CorrectRejection
227.3	2	TrialStart	Oddball	82	1	1	1	396	Hit
229.3	0.2	ToneStart	Oddball	82	1	1	1	396	Hit
230.55	2	TrialStart	Standard	83	0	0	1	n/a	CorrectRejection
232.55	0.2	ToneStart	Standard	83	0	0	1	n/a	CorrectRejection
233.8	2	TrialStart	Standard	84	0	0	1	n/a	CorrectRejection
235.799	0.2	ToneStart	Standard	84	0	0	1	n/a	CorrectRejection
237.049	2	TrialStart	Novel	85	0	0	1	n/a	CorrectRejection
239.049	0.2	ToneStart	Novel	85	0	0	1	n/a	CorrectRejection
240.299	1	TrialStart	Standard	86	0	0	1	n/a	CorrectRejection
241.299	0.2	ToneStart	Standard	86	0	0	1	n/a	CorrectRejection
242.549	2	TrialStart	Standard	87	0	0	1	n/a	CorrectRejection
244.548	0.2	ToneStart	Standard	87	0	0	1	n/a	CorrectRejection
245.798	1	TrialStart	Standard	88	0	0	1	n/a	CorrectRejection
246.798	0.2	ToneStart	Standard	88	0	0	1	n/a	CorrectRejection
248.048	1	TrialStart	Standard	89	0	0	1	n/a	CorrectRejection
249.048	0.2	ToneStart	Standard	89	0	0	1	n/a	CorrectRejection
250.298	2	TrialStart	Standard	90	0	0	1	n/a	CorrectRejection
252.298	0.2	ToneStart	Standard	90	0	0	1	n/a	CorrectRejection
253.547	1	TrialStart	Standard	91	0	0	1	n/a	CorrectRejection
254.597	0.2	ToneStart	Standard	91	0	0	1	n/a	CorrectRejection
255.847	1	TrialStart	Standard	92	0	0	1	n/a	CorrectRejection
256.847	0.2	ToneStart	Standard	92	0	0	1	n/a	CorrectRejection
258.097	2	TrialStart	Standard	93	0	0	1	n/a	CorrectRejection
260.097	0.2	ToneStart	Standard	93	0	0	1	n/a	CorrectRejection
261.347	1	TrialStart	Novel	94	0	0	1	n/a	CorrectRejection
262.347	0.2	ToneStart	Novel	94	0	0	1	n/a	CorrectRejection
263.596	2	TrialStart	Oddball	95	1	1	1	460	Hit
265.596	0.2	ToneStart	Oddball	95	1	1	1	460	Hit
266.846	2	TrialStart	Standard	96	0	0	1	n/a	CorrectRejection
268.846	0.2	ToneStart	Standard	96	0	0	1	n/a	CorrectRejection
270.096	1	TrialStart	Standard	97	0	0	1	n/a	CorrectRejection
271.096	0.2	ToneStart	Standard	97	0	0	1	n/a	CorrectRejection
272.345	2	TrialStart	Standard	98	0	0	1	n/a	CorrectRejection
274.345	0.2	ToneStart	Standard	98	0	0	1	n/a	CorrectRejection
275.595	1	TrialStart	Standard	99	0	0	1	n/a	CorrectRejection
276.595	0.2	ToneStart	Standard	99	0	0	1	n/a	CorrectRejection
277.845	1	TrialStart	Standard	100	0	0	1	n/a	CorrectRejection
278.845	0.2	ToneStart	Standard	100	0	0	1	n/a	CorrectRejection
280.095	1	TrialStart	Standard	101	0	0	1	n/a	CorrectRejection
281.094	0.2	ToneStart	Standard	101	0	0	1	n/a	CorrectRejection
282.344	1	TrialStart	Standard	102	0	0	1	n/a	CorrectRejection
283.344	0.2	ToneStart	Standard	102	0	0	1	n/a	CorrectRejection
284.594	1	TrialStart	Standard	103	0	0	1	n/a	CorrectRejection
285.594	0.2	ToneStart	Standard	103	0	0	1	n/a	CorrectRejection
286.844	1	TrialStart	Standard	104	0	0	1	n/a	CorrectRejection
287.844	0.2	ToneStart	Standard	104	0	0	1	n/a	CorrectRejection
289.094	1	TrialStart	Oddball	105	1	1	1	446	Hit
290.094	0.2	ToneStart	Oddball	105	1	1	1	446	Hit
291.343	2	TrialStart	Standard	106	0	0	1	n/a	CorrectRejection
293.343	0.2	ToneStart	Standard	106	0	0	1	n/a	CorrectRejection
294.593	1	TrialStart	Standard	107	0	0	1	n/a	CorrectRejection
295.594	0.2	ToneStart	Standard	107	0	0	1	n/a	CorrectRejection
296.843	1	TrialStart	Standard	108	0	0	1	n/a	CorrectRejection
297.843	0.2	ToneStart	Standard	108	0	0	1	n/a	CorrectRejection
299.093	1	TrialStart	Standard	109	0	0	1	n/a	CorrectRejection
300.093	0.2	ToneStart	Standard	109	0	0	1	n/a	CorrectRejection
301.342	2	TrialStart	Standard	110	0	0	1	n/a	CorrectRejection
303.342	0.2	ToneStart	Standard	110	0	0	1	n/a	CorrectRejection
304.592	1	TrialStart	Oddball	111	1	1	1	536	Hit
305.592	0.2	ToneStart	Oddball	111	1	1	1	536	Hit
306.842	1	TrialStart	Standard	112	0	0	1	n/a	CorrectRejection
307.842	0.2	ToneStart	Standard	112	0	0	1	n/a	CorrectRejection
309.091	2	TrialStart	Standard	113	0	0	1	n/a	CorrectRejection
311.091	0.2	ToneStart	Standard	113	0	0	1	n/a	CorrectRejection
312.341	2	TrialStart	Standard	114	0	0	1	n/a	CorrectRejection
314.341	0.2	ToneStart	Standard	114	0	0	1	n/a	CorrectRejection
315.591	2	TrialStart	Standard	115	0	0	1	n/a	CorrectRejection
317.591	0.2	ToneStart	Standard	115	0	0	1	n/a	CorrectRejection
318.84	1	TrialStart	Standard	116	0	0	1	n/a	CorrectRejection
319.841	0.2	ToneStart	Standard	116	0	0	1	n/a	CorrectRejection
321.09	2	TrialStart	Standard	117	0	0	1	n/a	CorrectRejection
323.09	0.2	ToneStart	Standard	117	0	0	1	n/a	CorrectRejection
324.34	1	TrialStart	Standard	118	0	0	1	n/a	CorrectRejection
325.34	0.2	ToneStart	Standard	118	0	0	1	n/a	CorrectRejection
326.59	1	TrialStart	Standard	119	0	0	1	n/a	CorrectRejection
327.59	0.2	ToneStart	Standard	119	0	0	1	n/a	CorrectRejection
328.839	1	TrialStart	Standard	120	0	0	1	n/a	CorrectRejection
329.839	0.2	ToneStart	Standard	120	0	0	1	n/a	CorrectRejection
