onset	duration	TrialEvent	ToneLabel	Trial	CRESP	RESP	ACC	RT	Code
0.058	2	TrialStart	Standard	1	0	0	1	n/a	CorrectRejection
2.059	0.2	ToneStart	Standard	1	0	0	1	n/a	CorrectRejection
3.308	2	TrialStart	Standard	2	0	0	1	n/a	CorrectRejection
5.308	0.2	ToneStart	Standard	2	0	0	1	n/a	CorrectRejection
6.558	2	TrialStart	Standard	3	0	0	1	n/a	CorrectRejection
8.557	0.2	ToneStart	Standard	3	0	0	1	n/a	CorrectRejection
9.807	2	TrialStart	Novel	4	0	0	1	n/a	CorrectRejection
11.807	0.2	ToneStart	Novel	4	0	0	1	n/a	CorrectRejection
13.057	1	TrialStart	Standard	5	0	0	1	n/a	CorrectRejection
14.073	0.2	ToneStart	Standard	5	0	0	1	n/a	CorrectRejection
15.323	1	TrialStart	Standard	6	0	0	1	n/a	CorrectRejection
16.323	0.2	ToneStart	Standard	6	0	0	1	n/a	CorrectRejection
17.573	2	TrialStart	Standard	7	0	0	1	n/a	CorrectRejection
19.573	0.2	ToneStart	Standard	7	0	0	1	n/a	CorrectRejection
20.823	1	TrialStart	Standard	8	0	0	1	n/a	CorrectRejection
21.823	0.2	ToneStart	Standard	8	0	0	1	n/a	CorrectRejection
23.072	1	TrialStart	Standard	9	0	0	1	n/a	CorrectRejection
24.072	0.2	ToneStart	Standard	9	0	0	1	n/a	CorrectRejection
25.322	1	TrialStart	Standard	10	0	0	1	n/a	CorrectRejection
26.322	0.2	ToneStart	Standard	10	0	0	1	n/a	CorrectRejection
27.572	1	TrialStart	Oddball	11	1	0	0	n/a	Miss
28.572	0.2	ToneStart	Oddball	11	1	0	0	n/a	Miss
29.822	1	TrialStart	Standard	12	0	0	1	n/a	CorrectRejection
30.822	0.2	ToneStart	Standard	12	0	0	1	n/a	CorrectRejection
32.072	2	TrialStart	Standard	13	0	0	1	n/a	CorrectRejection
34.071	0.2	ToneStart	Standard	13	0	0	1	n/a	CorrectRejection
35.321	1	TrialStart	Standard	14	0	0	1	n/a	CorrectRejection
36.321	0.2	ToneStart	Standard	14	0	0	1	n/a	CorrectRejection
37.571	2	TrialStart	Standard	15	0	0	1	n/a	CorrectRejection
39.571	0.2	ToneStart	Standard	15	0	0	1	n/a	CorrectRejection
40.821	2	TrialStart	Standard	16	0	0	1	n/a	CorrectRejection
42.82	0.2	ToneStart	Standard	16	0	0	1	n/a	CorrectRejection
44.07	1	TrialStart	Novel	17	0	0	1	n/a	CorrectRejection
45.07	0.2	ToneStart	Novel	17	0	0	1	n/a	CorrectRejection
46.32	2	TrialStart	Standard	18	0	0	1	n/a	CorrectRejection
48.32	0.2	ToneStart	Standard	18	0	0	1	n/a	CorrectRejection
49.57	2	TrialStart	Standard	19	0	0	1	n/a	CorrectRejection
51.569	0.2	ToneStart	Standard	19	0	0	1	n/a	CorrectRejection
52.82	1	TrialStart	Standard	20	0	0	1	n/a	CorrectRejection
53.819	0.2	ToneStart	Standard	20	0	0	1	n/a	CorrectRejection
55.069	2	TrialStart	Standard	21	0	0	1	n/a	CorrectRejection
57.069	0.2	ToneStart	Standard	21	0	0	1	n/a	CorrectRejection
58.319	2	TrialStart	Standard	22	0	0	1	n/a	CorrectRejection
60.319	0.2	ToneStart	Standard	22	0	0	1	n/a	CorrectRejection
61.568	1	TrialStart	Novel	23	0	0	1	n/a	CorrectRejection
62.585	0.2	ToneStart	Novel	23	0	0	1	n/a	CorrectRejection
63.835	2	TrialStart	Oddball	24	1	0	0	n/a	Miss
65.835	0.2	ToneStart	Oddball	24	1	0	0	n/a	Miss
67.084	2	TrialStart	Standard	25	0	0	1	n/a	CorrectRejection
69.084	0.2	ToneStart	Standard	25	0	0	1	n/a	CorrectRejection
70.334	2	TrialStart	Standard	26	0	0	1	n/a	CorrectRejection
72.334	0.2	ToneStart	Standard	26	0	0	1	n/a	CorrectRejection
73.584	1	TrialStart	Standard	27	0	0	1	n/a	CorrectRejection
74.584	0.2	ToneStart	Standard	27	0	0	1	n/a	CorrectRejection
75.834	2	TrialStart	Standard	28	0	0	1	n/a	CorrectRejection
77.833	0.2	ToneStart	Standard	28	0	0	1	n/a	CorrectRejection
79.083	2	TrialStart	Oddball	29	1	0	0	n/a	Miss
81.083	0.2	ToneStart	Oddball	29	1	0	0	n/a	Miss
82.333	1	TrialStart	Novel	30	0	0	1	n/a	CorrectRejection
83.333	0.2	ToneStart	Novel	30	0	0	1	n/a	CorrectRejection
84.583	1	TrialStart	Standard	31	0	0	1	n/a	CorrectRejection
85.582	0.2	ToneStart	Standard	31	0	0	1	n/a	CorrectRejection
86.832	2	TrialStart	Standard	32	0	0	1	n/a	CorrectRejection
88.832	0.2	ToneStart	Standard	32	0	0	1	n/a	CorrectRejection
90.082	1	TrialStart	Novel	33	0	0	1	n/a	CorrectRejection
91.082	0.2	ToneStart	Novel	33	0	0	1	n/a	CorrectRejection
92.332	2	TrialStart	Standard	34	0	0	1	n/a	CorrectRejection
94.332	0.2	ToneStart	Standard	34	0	0	1	n/a	CorrectRejection
95.581	2	TrialStart	Standard	35	0	0	1	n/a	CorrectRejection
97.581	0.2	ToneStart	Standard	35	0	0	1	n/a	CorrectRejection
98.831	1	TrialStart	Standard	36	0	0	1	n/a	CorrectRejection
99.831	0.2	ToneStart	Standard	36	0	0	1	n/a	CorrectRejection
101.081	1	TrialStart	Standard	37	0	0	1	n/a	CorrectRejection
102.097	0.2	ToneStart	Standard	37	0	0	1	n/a	CorrectRejection
103.347	2	TrialStart	Standard	38	0	0	1	n/a	CorrectRejection
105.347	0.2	ToneStart	Standard	38	0	0	1	n/a	CorrectRejection
106.597	2	TrialStart	Oddball	39	1	0	0	n/a	Miss
108.597	0.2	ToneStart	Oddball	39	1	0	0	n/a	Miss
109.847	2	TrialStart	Standard	40	0	0	1	n/a	CorrectRejection
111.846	0.2	ToneStart	Standard	40	0	0	1	n/a	CorrectRejection
113.096	2	TrialStart	Standard	41	0	0	1	n/a	CorrectRejection
115.096	0.2	ToneStart	Standard	41	0	0	1	n/a	CorrectRejection
116.346	1	TrialStart	Standard	42	0	0	1	n/a	CorrectRejection
117.362	0.2	ToneStart	Standard	42	0	0	1	n/a	CorrectRejection
118.612	1	TrialStart	Standard	43	0	0	1	n/a	CorrectRejection
119.612	0.2	ToneStart	Standard	43	0	0	1	n/a	CorrectRejection
120.862	1	TrialStart	Novel	44	0	0	1	n/a	CorrectRejection
121.862	0.2	ToneStart	Novel	44	0	0	1	n/a	CorrectRejection
123.112	1	TrialStart	Standard	45	0	0	1	n/a	CorrectRejection
124.112	0.2	ToneStart	Standard	45	0	0	1	n/a	CorrectRejection
125.362	2	TrialStart	Standard	46	0	0	1	n/a	CorrectRejection
127.361	0.2	ToneStart	Standard	46	0	0	1	n/a	CorrectRejection
128.611	2	TrialStart	Standard	47	0	0	1	n/a	CorrectRejection
130.611	0.2	ToneStart	Standard	47	0	0	1	n/a	CorrectRejection
131.861	1	TrialStart	Standard	48	0	0	1	n/a	CorrectRejection
132.861	0.2	ToneStart	Standard	48	0	0	1	n/a	CorrectRejection
134.111	2	TrialStart	Oddball	49	1	1	1	701	Hit
136.11	0.2	ToneStart	Oddball	49	1	1	1	701	Hit
137.36	2	TrialStart	Standard	50	0	0	1	n/a	CorrectRejection
139.36	0.2	ToneStart	Standard	50	0	0	1	n/a	CorrectRejection
140.61	2	TrialStart	Standard	51	0	0	1	n/a	CorrectRejection
142.61	0.2	ToneStart	Standard	51	0	0	1	n/a	CorrectRejection
143.86	2	TrialStart	Standard	52	0	0	1	n/a	CorrectRejection
145.859	0.2	ToneStart	Standard	52	0	0	1	n/a	CorrectRejection
147.109	2	TrialStart	Novel	53	0	0	1	n/a	CorrectRejection
149.109	0.2	ToneStart	Novel	53	0	0	1	n/a	CorrectRejection
150.359	2	TrialStart	Standard	54	0	0	1	n/a	CorrectRejection
152.359	0.2	ToneStart	Standard	54	0	0	1	n/a	CorrectRejection
153.609	1	TrialStart	Standard	55	0	0	1	n/a	CorrectRejection
154.608	0.2	ToneStart	Standard	55	0	0	1	n/a	CorrectRejection
155.858	1	TrialStart	Novel	56	0	0	1	n/a	CorrectRejection
156.875	0.2	ToneStart	Novel	56	0	0	1	n/a	CorrectRejection
158.125	2	TrialStart	Standard	57	0	0	1	n/a	CorrectRejection
160.124	0.2	ToneStart	Standard	57	0	0	1	n/a	CorrectRejection
161.374	1	TrialStart	Standard	58	0	0	1	n/a	CorrectRejection
162.374	0.2	ToneStart	Standard	58	0	0	1	n/a	CorrectRejection
163.624	1	TrialStart	Standard	59	0	0	1	n/a	CorrectRejection
164.641	0.2	ToneStart	Standard	59	0	0	1	n/a	CorrectRejection
165.891	1	TrialStart	Oddball	60	1	1	1	929	Hit
166.907	0.2	ToneStart	Oddball	60	1	1	1	929	Hit
168.157	1	TrialStart	Standard	61	0	0	1	n/a	CorrectRejection
169.161	0.2	ToneStart	Standard	61	0	0	1	n/a	CorrectRejection
170.423	2	TrialStart	Standard	62	0	0	1	n/a	CorrectRejection
172.423	0.2	ToneStart	Standard	62	0	0	1	n/a	CorrectRejection
173.673	2	TrialStart	Standard	63	0	0	1	n/a	CorrectRejection
175.673	0.2	ToneStart	Standard	63	0	0	1	n/a	CorrectRejection
176.923	1	TrialStart	Standard	64	0	0	1	n/a	CorrectRejection
177.923	0.2	ToneStart	Standard	64	0	0	1	n/a	CorrectRejection
179.172	1	TrialStart	Novel	65	0	0	1	n/a	CorrectRejection
180.172	0.2	ToneStart	Novel	65	0	0	1	n/a	CorrectRejection
181.422	2	TrialStart	Standard	66	0	0	1	n/a	CorrectRejection
183.422	0.2	ToneStart	Standard	66	0	0	1	n/a	CorrectRejection
184.672	1	TrialStart	Standard	67	0	0	1	n/a	CorrectRejection
185.672	0.2	ToneStart	Standard	67	0	0	1	n/a	CorrectRejection
186.922	2	TrialStart	Oddball	68	1	1	1	777	Hit
188.921	0.2	ToneStart	Oddball	68	1	1	1	777	Hit
190.171	1	TrialStart	Standard	69	0	0	1	n/a	CorrectRejection
191.171	0.2	ToneStart	Standard	69	0	0	1	n/a	CorrectRejection
192.421	1	TrialStart	Standard	70	0	0	1	n/a	CorrectRejection
193.438	0.2	ToneStart	Standard	70	0	0	1	n/a	CorrectRejection
194.687	2	TrialStart	Standard	71	0	0	1	n/a	CorrectRejection
196.687	0.2	ToneStart	Standard	71	0	0	1	n/a	CorrectRejection
197.937	2	TrialStart	Standard	72	0	0	1	n/a	CorrectRejection
199.937	0.2	ToneStart	Standard	72	0	0	1	n/a	CorrectRejection
201.187	1	TrialStart	Standard	73	0	0	1	n/a	CorrectRejection
202.187	0.2	ToneStart	Standard	73	0	0	1	n/a	CorrectRejection
203.437	2	TrialStart	Standard	74	0	0	1	n/a	CorrectRejection
205.436	0.2	ToneStart	Standard	74	0	0	1	n/a	CorrectRejection
206.686	2	TrialStart	Oddball	75	1	1	1	634	Hit
208.686	0.2	ToneStart	Oddball	75	1	1	1	634	Hit
209.936	2	TrialStart	Standard	76	0	0	1	n/a	CorrectRejection
211.936	0.2	ToneStart	Standard	76	0	0	1	n/a	CorrectRejection
213.202	1	TrialStart	Standard	77	0	0	1	n/a	CorrectRejection
214.219	0.2	ToneStart	Standard	77	0	0	1	n/a	CorrectRejection
215.469	2	TrialStart	Standard	78	0	0	1	n/a	CorrectRejection
217.468	0.2	ToneStart	Standard	78	0	0	1	n/a	CorrectRejection
218.718	1	TrialStart	Novel	79	0	0	1	n/a	CorrectRejection
219.718	0.2	ToneStart	Novel	79	0	0	1	n/a	CorrectRejection
220.968	2	TrialStart	Standard	80	0	0	1	n/a	CorrectRejection
222.968	0.2	ToneStart	Standard	80	0	0	1	n/a	CorrectRejection
224.218	2	TrialStart	Standard	81	0	0	1	n/a	CorrectRejection
226.217	0.2	ToneStart	Standard	81	0	0	1	n/a	CorrectRejection
227.467	2	TrialStart	Oddball	82	1	1	1	877	Hit
229.467	0.2	ToneStart	Oddball	82	1	1	1	877	Hit
230.717	2	TrialStart	Standard	83	0	0	1	n/a	CorrectRejection
232.717	0.2	ToneStart	Standard	83	0	0	1	n/a	CorrectRejection
233.967	2	TrialStart	Standard	84	0	0	1	n/a	CorrectRejection
235.966	0.2	ToneStart	Standard	84	0	0	1	n/a	CorrectRejection
237.216	2	TrialStart	Novel	85	0	0	1	n/a	CorrectRejection
239.216	0.2	ToneStart	Novel	85	0	0	1	n/a	CorrectRejection
240.466	1	TrialStart	Standard	86	0	0	1	n/a	CorrectRejection
241.482	0.2	ToneStart	Standard	86	0	0	1	n/a	CorrectRejection
242.732	2	TrialStart	Standard	87	0	0	1	n/a	CorrectRejection
244.732	0.2	ToneStart	Standard	87	0	0	1	n/a	CorrectRejection
245.982	1	TrialStart	Standard	88	0	0	1	n/a	CorrectRejection
246.982	0.2	ToneStart	Standard	88	0	0	1	n/a	CorrectRejection
248.232	1	TrialStart	Standard	89	0	0	1	n/a	CorrectRejection
249.248	0.2	ToneStart	Standard	89	0	0	1	n/a	CorrectRejection
250.498	2	TrialStart	Standard	90	0	0	1	n/a	CorrectRejection
252.498	0.2	ToneStart	Standard	90	0	0	1	n/a	CorrectRejection
253.748	1	TrialStart	Standard	91	0	0	1	n/a	CorrectRejection
254.748	0.2	ToneStart	Standard	91	0	0	1	n/a	CorrectRejection
255.998	1	TrialStart	Standard	92	0	0	1	n/a	CorrectRejection
256.997	0.2	ToneStart	Standard	92	0	0	1	n/a	CorrectRejection
258.247	2	TrialStart	Standard	93	0	0	1	n/a	CorrectRejection
260.247	0.2	ToneStart	Standard	93	0	0	1	n/a	CorrectRejection
261.497	1	TrialStart	Novel	94	0	0	1	n/a	CorrectRejection
262.497	0.2	ToneStart	Novel	94	0	0	1	n/a	CorrectRejection
263.747	2	TrialStart	Oddball	95	1	1	1	757	Hit
265.747	0.2	ToneStart	Oddball	95	1	1	1	757	Hit
266.996	2	TrialStart	Standard	96	0	0	1	n/a	CorrectRejection
268.996	0.2	ToneStart	Standard	96	0	0	1	n/a	CorrectRejection
270.246	1	TrialStart	Standard	97	0	0	1	n/a	CorrectRejection
271.246	0.2	ToneStart	Standard	97	0	0	1	n/a	CorrectRejection
272.496	2	TrialStart	Standard	98	0	0	1	n/a	CorrectRejection
274.496	0.2	ToneStart	Standard	98	0	0	1	n/a	CorrectRejection
275.745	1	TrialStart	Standard	99	0	0	1	n/a	CorrectRejection
276.745	0.2	ToneStart	Standard	99	0	0	1	n/a	CorrectRejection
277.995	1	TrialStart	Standard	100	0	0	1	n/a	CorrectRejection
278.995	0.2	ToneStart	Standard	100	0	0	1	n/a	CorrectRejection
280.245	1	TrialStart	Standard	101	0	0	1	n/a	CorrectRejection
281.245	0.2	ToneStart	Standard	101	0	0	1	n/a	CorrectRejection
282.495	1	TrialStart	Standard	102	0	0	1	n/a	CorrectRejection
283.495	0.2	ToneStart	Standard	102	0	0	1	n/a	CorrectRejection
284.744	1	TrialStart	Standard	103	0	0	1	n/a	CorrectRejection
285.744	0.2	ToneStart	Standard	103	0	0	1	n/a	CorrectRejection
286.994	1	TrialStart	Standard	104	0	0	1	n/a	CorrectRejection
287.994	0.2	ToneStart	Standard	104	0	0	1	n/a	CorrectRejection
289.244	1	TrialStart	Oddball	105	1	1	1	715	Hit
290.261	0.2	ToneStart	Oddball	105	1	1	1	715	Hit
291.51	2	TrialStart	Standard	106	0	0	1	n/a	CorrectRejection
293.51	0.2	ToneStart	Standard	106	0	0	1	n/a	CorrectRejection
294.76	1	TrialStart	Standard	107	0	0	1	n/a	CorrectRejection
295.76	0.2	ToneStart	Standard	107	0	0	1	n/a	CorrectRejection
297.01	1	TrialStart	Standard	108	0	0	1	n/a	CorrectRejection
298.01	0.2	ToneStart	Standard	108	0	0	1	n/a	CorrectRejection
299.26	1	TrialStart	Standard	109	0	0	1	n/a	CorrectRejection
300.26	0.2	ToneStart	Standard	109	0	0	1	n/a	CorrectRejection
301.509	2	TrialStart	Standard	110	0	0	1	n/a	CorrectRejection
303.509	0.2	ToneStart	Standard	110	0	0	1	n/a	CorrectRejection
304.759	1	TrialStart	Oddball	111	1	1	1	617	Hit
305.759	0.2	ToneStart	Oddball	111	1	1	1	617	Hit
307.009	1	TrialStart	Standard	112	0	0	1	n/a	CorrectRejection
308.009	0.2	ToneStart	Standard	112	0	0	1	n/a	CorrectRejection
309.259	2	TrialStart	Standard	113	0	0	1	n/a	CorrectRejection
311.258	0.2	ToneStart	Standard	113	0	0	1	n/a	CorrectRejection
312.508	2	TrialStart	Standard	114	0	0	1	n/a	CorrectRejection
314.508	0.2	ToneStart	Standard	114	0	0	1	n/a	CorrectRejection
315.758	2	TrialStart	Standard	115	0	0	1	n/a	CorrectRejection
317.758	0.2	ToneStart	Standard	115	0	0	1	n/a	CorrectRejection
319.008	1	TrialStart	Standard	116	0	0	1	n/a	CorrectRejection
320.024	0.2	ToneStart	Standard	116	0	0	1	n/a	CorrectRejection
321.274	2	TrialStart	Standard	117	0	0	1	n/a	CorrectRejection
323.275	0.2	ToneStart	Standard	117	0	0	1	n/a	CorrectRejection
324.524	1	TrialStart	Standard	118	0	0	1	n/a	CorrectRejection
325.524	0.2	ToneStart	Standard	118	0	0	1	n/a	CorrectRejection
326.773	1	TrialStart	Standard	119	0	0	1	n/a	CorrectRejection
327.773	0.2	ToneStart	Standard	119	0	0	1	n/a	CorrectRejection
329.023	1	TrialStart	Standard	120	0	0	1	n/a	CorrectRejection
330.04	0.2	ToneStart	Standard	120	0	0	1	n/a	CorrectRejection
