onset	duration	TrialEvent	ToneLabel	Trial	CRESP	RESP	ACC	RT	Code
0.056	2	TrialStart	Standard	1	0	0	1	n/a	CorrectRejection
2.056	0.2	ToneStart	Standard	1	0	0	1	n/a	CorrectRejection
3.322	2	TrialStart	Standard	2	0	0	1	n/a	CorrectRejection
5.322	0.2	ToneStart	Standard	2	0	0	1	n/a	CorrectRejection
6.588	2	TrialStart	Standard	3	0	0	1	n/a	CorrectRejection
8.588	0.2	ToneStart	Standard	3	0	0	1	n/a	CorrectRejection
9.855	2	TrialStart	Novel	4	0	0	1	n/a	CorrectRejection
11.855	0.2	ToneStart	Novel	4	0	0	1	n/a	CorrectRejection
13.121	1	TrialStart	Standard	5	0	0	1	n/a	CorrectRejection
14.121	0.2	ToneStart	Standard	5	0	0	1	n/a	CorrectRejection
15.388	1	TrialStart	Standard	6	0	0	1	n/a	CorrectRejection
16.387	0.2	ToneStart	Standard	6	0	0	1	n/a	CorrectRejection
17.637	2	TrialStart	Standard	7	0	0	1	n/a	CorrectRejection
19.637	0.2	ToneStart	Standard	7	0	0	1	n/a	CorrectRejection
20.904	1	TrialStart	Standard	8	0	0	1	n/a	CorrectRejection
21.904	0.2	ToneStart	Standard	8	0	0	1	n/a	CorrectRejection
23.17	1	TrialStart	Standard	9	0	0	1	n/a	CorrectRejection
24.17	0.2	ToneStart	Standard	9	0	0	1	n/a	CorrectRejection
25.42	1	TrialStart	Standard	10	0	0	1	n/a	CorrectRejection
26.42	0.2	ToneStart	Standard	10	0	0	1	n/a	CorrectRejection
27.67	1	TrialStart	Oddball	11	1	1	1	632	Hit
28.67	0.2	ToneStart	Oddball	11	1	1	1	632	Hit
29.92	1	TrialStart	Standard	12	0	0	1	n/a	CorrectRejection
30.919	0.2	ToneStart	Standard	12	0	0	1	n/a	CorrectRejection
32.171	2	TrialStart	Standard	13	0	0	1	n/a	CorrectRejection
34.169	0.2	ToneStart	Standard	13	0	0	1	n/a	CorrectRejection
35.419	1	TrialStart	Standard	14	0	0	1	n/a	CorrectRejection
36.419	0.2	ToneStart	Standard	14	0	0	1	n/a	CorrectRejection
37.669	2	TrialStart	Standard	15	0	0	1	n/a	CorrectRejection
39.669	0.2	ToneStart	Standard	15	0	0	1	n/a	CorrectRejection
40.919	2	TrialStart	Standard	16	0	0	1	n/a	CorrectRejection
42.918	0.2	ToneStart	Standard	16	0	0	1	n/a	CorrectRejection
44.168	1	TrialStart	Novel	17	0	0	1	n/a	CorrectRejection
45.168	0.2	ToneStart	Novel	17	0	0	1	n/a	CorrectRejection
46.418	2	TrialStart	Standard	18	0	0	1	n/a	CorrectRejection
48.418	0.2	ToneStart	Standard	18	0	0	1	n/a	CorrectRejection
49.684	2	TrialStart	Standard	19	0	0	1	n/a	CorrectRejection
51.684	0.2	ToneStart	Standard	19	0	0	1	n/a	CorrectRejection
52.951	1	TrialStart	Standard	20	0	0	1	n/a	CorrectRejection
53.951	0.2	ToneStart	Standard	20	0	0	1	n/a	CorrectRejection
55.218	2	TrialStart	Standard	21	0	0	1	n/a	CorrectRejection
57.217	0.2	ToneStart	Standard	21	0	0	1	n/a	CorrectRejection
58.467	2	TrialStart	Standard	22	0	0	1	n/a	CorrectRejection
60.467	0.2	ToneStart	Standard	22	0	0	1	n/a	CorrectRejection
61.733	1	TrialStart	Novel	23	0	0	1	n/a	CorrectRejection
62.735	0.2	ToneStart	Novel	23	0	0	1	n/a	CorrectRejection
64	2	TrialStart	Oddball	24	1	1	1	660	Hit
66	0.2	ToneStart	Oddball	24	1	1	1	660	Hit
67.266	2	TrialStart	Standard	25	0	0	1	n/a	CorrectRejection
69.266	0.2	ToneStart	Standard	25	0	0	1	n/a	CorrectRejection
70.532	2	TrialStart	Standard	26	0	0	1	n/a	CorrectRejection
72.532	0.2	ToneStart	Standard	26	0	0	1	n/a	CorrectRejection
73.799	1	TrialStart	Standard	27	0	0	1	n/a	CorrectRejection
74.8	0.2	ToneStart	Standard	27	0	0	1	n/a	CorrectRejection
76.065	2	TrialStart	Standard	28	0	0	1	n/a	CorrectRejection
78.065	0.2	ToneStart	Standard	28	0	0	1	n/a	CorrectRejection
79.332	2	TrialStart	Oddball	29	1	1	1	681	Hit
81.331	0.2	ToneStart	Oddball	29	1	1	1	681	Hit
82.581	1	TrialStart	Novel	30	0	0	1	n/a	CorrectRejection
83.582	0.2	ToneStart	Novel	30	0	0	1	n/a	CorrectRejection
84.848	1	TrialStart	Standard	31	0	0	1	n/a	CorrectRejection
85.88	0.2	ToneStart	Standard	31	0	0	1	n/a	CorrectRejection
87.148	2	TrialStart	Standard	32	0	0	1	n/a	CorrectRejection
89.147	0.2	ToneStart	Standard	32	0	0	1	n/a	CorrectRejection
90.414	1	TrialStart	Novel	33	0	0	1	n/a	CorrectRejection
91.415	0.2	ToneStart	Novel	33	0	0	1	n/a	CorrectRejection
92.68	2	TrialStart	Standard	34	0	0	1	n/a	CorrectRejection
94.68	0.2	ToneStart	Standard	34	0	0	1	n/a	CorrectRejection
95.947	2	TrialStart	Standard	35	0	0	1	n/a	CorrectRejection
97.947	0.2	ToneStart	Standard	35	0	0	1	n/a	CorrectRejection
99.213	1	TrialStart	Standard	36	0	0	1	n/a	CorrectRejection
100.213	0.2	ToneStart	Standard	36	0	0	1	n/a	CorrectRejection
101.48	1	TrialStart	Standard	37	0	0	1	n/a	CorrectRejection
102.479	0.2	ToneStart	Standard	37	0	0	1	n/a	CorrectRejection
103.729	2	TrialStart	Standard	38	0	0	1	n/a	CorrectRejection
105.729	0.2	ToneStart	Standard	38	0	0	1	n/a	CorrectRejection
106.996	2	TrialStart	Oddball	39	1	1	1	594	Hit
108.996	0.2	ToneStart	Oddball	39	1	1	1	594	Hit
110.262	2	TrialStart	Standard	40	0	0	1	n/a	CorrectRejection
112.262	0.2	ToneStart	Standard	40	0	0	1	n/a	CorrectRejection
113.528	2	TrialStart	Standard	41	0	0	1	n/a	CorrectRejection
115.528	0.2	ToneStart	Standard	41	0	0	1	n/a	CorrectRejection
116.795	1	TrialStart	Standard	42	0	0	1	n/a	CorrectRejection
117.796	0.2	ToneStart	Standard	42	0	0	1	n/a	CorrectRejection
119.061	1	TrialStart	Standard	43	0	0	1	n/a	CorrectRejection
120.061	0.2	ToneStart	Standard	43	0	0	1	n/a	CorrectRejection
121.328	1	TrialStart	Novel	44	0	0	1	n/a	CorrectRejection
122.328	0.2	ToneStart	Novel	44	0	0	1	n/a	CorrectRejection
123.594	1	TrialStart	Standard	45	0	0	1	n/a	CorrectRejection
124.594	0.2	ToneStart	Standard	45	0	0	1	n/a	CorrectRejection
125.861	2	TrialStart	Standard	46	0	0	1	n/a	CorrectRejection
127.86	0.2	ToneStart	Standard	46	0	0	1	n/a	CorrectRejection
129.11	2	TrialStart	Standard	47	0	0	1	n/a	CorrectRejection
131.11	0.2	ToneStart	Standard	47	0	0	1	n/a	CorrectRejection
132.36	1	TrialStart	Standard	48	0	0	1	n/a	CorrectRejection
133.36	0.2	ToneStart	Standard	48	0	0	1	n/a	CorrectRejection
134.626	2	TrialStart	Oddball	49	1	1	1	404	Hit
136.626	0.2	ToneStart	Oddball	49	1	1	1	404	Hit
137.876	2	TrialStart	Standard	50	0	0	1	n/a	CorrectRejection
139.876	0.2	ToneStart	Standard	50	0	0	1	n/a	CorrectRejection
141.143	2	TrialStart	Standard	51	0	0	1	n/a	CorrectRejection
143.142	0.2	ToneStart	Standard	51	0	0	1	n/a	CorrectRejection
144.409	2	TrialStart	Standard	52	0	0	1	n/a	CorrectRejection
146.409	0.2	ToneStart	Standard	52	0	0	1	n/a	CorrectRejection
147.675	2	TrialStart	Novel	53	0	0	1	n/a	CorrectRejection
149.675	0.2	ToneStart	Novel	53	0	0	1	n/a	CorrectRejection
150.925	2	TrialStart	Standard	54	0	0	1	n/a	CorrectRejection
152.925	0.2	ToneStart	Standard	54	0	0	1	n/a	CorrectRejection
154.175	1	TrialStart	Standard	55	0	0	1	n/a	CorrectRejection
155.175	0.2	ToneStart	Standard	55	0	0	1	n/a	CorrectRejection
156.424	1	TrialStart	Novel	56	0	0	1	n/a	CorrectRejection
157.425	0.2	ToneStart	Novel	56	0	0	1	n/a	CorrectRejection
158.691	2	TrialStart	Standard	57	0	0	1	n/a	CorrectRejection
160.691	0.2	ToneStart	Standard	57	0	0	1	n/a	CorrectRejection
161.957	1	TrialStart	Standard	58	0	0	1	n/a	CorrectRejection
162.957	0.2	ToneStart	Standard	58	0	0	1	n/a	CorrectRejection
164.224	1	TrialStart	Standard	59	0	0	1	n/a	CorrectRejection
165.224	0.2	ToneStart	Standard	59	0	0	1	n/a	CorrectRejection
166.49	1	TrialStart	Oddball	60	1	1	1	480	Hit
167.49	0.2	ToneStart	Oddball	60	1	1	1	480	Hit
168.757	1	TrialStart	Standard	61	0	0	1	n/a	CorrectRejection
169.757	0.2	ToneStart	Standard	61	0	0	1	n/a	CorrectRejection
171.023	2	TrialStart	Standard	62	0	0	1	n/a	CorrectRejection
173.023	0.2	ToneStart	Standard	62	0	0	1	n/a	CorrectRejection
174.289	2	TrialStart	Standard	63	0	0	1	n/a	CorrectRejection
176.289	0.2	ToneStart	Standard	63	0	0	1	n/a	CorrectRejection
177.539	1	TrialStart	Standard	64	0	0	1	n/a	CorrectRejection
178.539	0.2	ToneStart	Standard	64	0	0	1	n/a	CorrectRejection
179.806	1	TrialStart	Novel	65	0	0	1	n/a	CorrectRejection
180.805	0.2	ToneStart	Novel	65	0	0	1	n/a	CorrectRejection
182.072	2	TrialStart	Standard	66	0	0	1	n/a	CorrectRejection
184.072	0.2	ToneStart	Standard	66	0	0	1	n/a	CorrectRejection
185.338	1	TrialStart	Standard	67	0	0	1	n/a	CorrectRejection
186.338	0.2	ToneStart	Standard	67	0	0	1	n/a	CorrectRejection
187.605	2	TrialStart	Oddball	68	1	1	1	659	Hit
189.605	0.2	ToneStart	Oddball	68	1	1	1	659	Hit
190.871	1	TrialStart	Standard	69	0	0	1	n/a	CorrectRejection
191.871	0.2	ToneStart	Standard	69	0	0	1	n/a	CorrectRejection
193.138	1	TrialStart	Standard	70	0	0	1	n/a	CorrectRejection
194.138	0.2	ToneStart	Standard	70	0	0	1	n/a	CorrectRejection
195.404	2	TrialStart	Standard	71	0	0	1	n/a	CorrectRejection
197.404	0.2	ToneStart	Standard	71	0	0	1	n/a	CorrectRejection
198.67	2	TrialStart	Standard	72	0	0	1	n/a	CorrectRejection
200.67	0.2	ToneStart	Standard	72	0	0	1	n/a	CorrectRejection
201.937	1	TrialStart	Standard	73	0	0	1	n/a	CorrectRejection
202.937	0.2	ToneStart	Standard	73	0	0	1	n/a	CorrectRejection
204.187	2	TrialStart	Standard	74	0	0	1	n/a	CorrectRejection
206.186	0.2	ToneStart	Standard	74	0	0	1	n/a	CorrectRejection
207.453	2	TrialStart	Oddball	75	1	1	1	593	Hit
209.453	0.2	ToneStart	Oddball	75	1	1	1	593	Hit
210.719	2	TrialStart	Standard	76	0	0	1	n/a	CorrectRejection
212.719	0.2	ToneStart	Standard	76	0	0	1	n/a	CorrectRejection
213.986	1	TrialStart	Standard	77	0	0	1	n/a	CorrectRejection
214.986	0.2	ToneStart	Standard	77	0	0	1	n/a	CorrectRejection
216.252	2	TrialStart	Standard	78	0	0	1	n/a	CorrectRejection
218.252	0.2	ToneStart	Standard	78	0	0	1	n/a	CorrectRejection
219.519	1	TrialStart	Novel	79	0	0	1	n/a	CorrectRejection
220.518	0.2	ToneStart	Novel	79	0	0	1	n/a	CorrectRejection
221.785	2	TrialStart	Standard	80	0	0	1	n/a	CorrectRejection
223.785	0.2	ToneStart	Standard	80	0	0	1	n/a	CorrectRejection
225.051	2	TrialStart	Standard	81	0	0	1	n/a	CorrectRejection
227.051	0.2	ToneStart	Standard	81	0	0	1	n/a	CorrectRejection
228.318	2	TrialStart	Oddball	82	1	1	1	649	Hit
230.318	0.2	ToneStart	Oddball	82	1	1	1	649	Hit
231.584	2	TrialStart	Standard	83	0	0	1	n/a	CorrectRejection
233.584	0.2	ToneStart	Standard	83	0	0	1	n/a	CorrectRejection
234.85	2	TrialStart	Standard	84	0	0	1	n/a	CorrectRejection
236.85	0.2	ToneStart	Standard	84	0	0	1	n/a	CorrectRejection
238.117	2	TrialStart	Novel	85	0	0	1	n/a	CorrectRejection
240.117	0.2	ToneStart	Novel	85	0	0	1	n/a	CorrectRejection
241.383	1	TrialStart	Standard	86	0	1	0	761	FalseAlarm
242.383	0.2	ToneStart	Standard	86	0	1	0	761	FalseAlarm
243.65	2	TrialStart	Standard	87	0	0	1	n/a	CorrectRejection
245.649	0.2	ToneStart	Standard	87	0	0	1	n/a	CorrectRejection
246.916	1	TrialStart	Standard	88	0	0	1	n/a	CorrectRejection
247.916	0.2	ToneStart	Standard	88	0	0	1	n/a	CorrectRejection
249.182	1	TrialStart	Standard	89	0	0	1	n/a	CorrectRejection
250.182	0.2	ToneStart	Standard	89	0	0	1	n/a	CorrectRejection
251.449	2	TrialStart	Standard	90	0	0	1	n/a	CorrectRejection
253.45	0.2	ToneStart	Standard	90	0	0	1	n/a	CorrectRejection
254.715	1	TrialStart	Standard	91	0	0	1	n/a	CorrectRejection
255.715	0.2	ToneStart	Standard	91	0	0	1	n/a	CorrectRejection
256.982	1	TrialStart	Standard	92	0	0	1	n/a	CorrectRejection
257.982	0.2	ToneStart	Standard	92	0	0	1	n/a	CorrectRejection
259.248	2	TrialStart	Standard	93	0	0	1	n/a	CorrectRejection
261.248	0.2	ToneStart	Standard	93	0	0	1	n/a	CorrectRejection
262.498	1	TrialStart	Novel	94	0	0	1	n/a	CorrectRejection
263.498	0.2	ToneStart	Novel	94	0	0	1	n/a	CorrectRejection
264.764	2	TrialStart	Oddball	95	1	1	1	491	Hit
266.764	0.2	ToneStart	Oddball	95	1	1	1	491	Hit
268.031	2	TrialStart	Standard	96	0	0	1	n/a	CorrectRejection
270.03	0.2	ToneStart	Standard	96	0	0	1	n/a	CorrectRejection
271.297	1	TrialStart	Standard	97	0	0	1	n/a	CorrectRejection
272.297	0.2	ToneStart	Standard	97	0	0	1	n/a	CorrectRejection
273.564	2	TrialStart	Standard	98	0	0	1	n/a	CorrectRejection
275.563	0.2	ToneStart	Standard	98	0	0	1	n/a	CorrectRejection
276.83	1	TrialStart	Standard	99	0	0	1	n/a	CorrectRejection
277.83	0.2	ToneStart	Standard	99	0	0	1	n/a	CorrectRejection
279.08	1	TrialStart	Standard	100	0	0	1	n/a	CorrectRejection
280.08	0.2	ToneStart	Standard	100	0	0	1	n/a	CorrectRejection
281.346	1	TrialStart	Standard	101	0	0	1	n/a	CorrectRejection
282.346	0.2	ToneStart	Standard	101	0	0	1	n/a	CorrectRejection
283.613	1	TrialStart	Standard	102	0	0	1	n/a	CorrectRejection
284.612	0.2	ToneStart	Standard	102	0	0	1	n/a	CorrectRejection
285.879	1	TrialStart	Standard	103	0	0	1	n/a	CorrectRejection
286.879	0.2	ToneStart	Standard	103	0	0	1	n/a	CorrectRejection
288.145	1	TrialStart	Standard	104	0	0	1	n/a	CorrectRejection
289.145	0.2	ToneStart	Standard	104	0	0	1	n/a	CorrectRejection
290.412	1	TrialStart	Oddball	105	1	1	1	683	Hit
291.412	0.2	ToneStart	Oddball	105	1	1	1	683	Hit
292.662	2	TrialStart	Standard	106	0	0	1	n/a	CorrectRejection
294.662	0.2	ToneStart	Standard	106	0	0	1	n/a	CorrectRejection
295.928	1	TrialStart	Standard	107	0	0	1	n/a	CorrectRejection
296.929	0.2	ToneStart	Standard	107	0	0	1	n/a	CorrectRejection
298.195	1	TrialStart	Standard	108	0	0	1	n/a	CorrectRejection
299.194	0.2	ToneStart	Standard	108	0	0	1	n/a	CorrectRejection
300.444	1	TrialStart	Standard	109	0	0	1	n/a	CorrectRejection
301.444	0.2	ToneStart	Standard	109	0	0	1	n/a	CorrectRejection
302.711	2	TrialStart	Standard	110	0	0	1	n/a	CorrectRejection
304.711	0.2	ToneStart	Standard	110	0	0	1	n/a	CorrectRejection
305.977	1	TrialStart	Oddball	111	1	1	1	635	Hit
306.977	0.2	ToneStart	Oddball	111	1	1	1	635	Hit
308.244	1	TrialStart	Standard	112	0	0	1	n/a	CorrectRejection
309.244	0.2	ToneStart	Standard	112	0	0	1	n/a	CorrectRejection
310.51	2	TrialStart	Standard	113	0	0	1	n/a	CorrectRejection
312.51	0.2	ToneStart	Standard	113	0	0	1	n/a	CorrectRejection
313.76	2	TrialStart	Standard	114	0	0	1	n/a	CorrectRejection
315.76	0.2	ToneStart	Standard	114	0	0	1	n/a	CorrectRejection
317.026	2	TrialStart	Standard	115	0	0	1	n/a	CorrectRejection
319.026	0.2	ToneStart	Standard	115	0	0	1	n/a	CorrectRejection
320.292	1	TrialStart	Standard	116	0	0	1	n/a	CorrectRejection
321.292	0.2	ToneStart	Standard	116	0	0	1	n/a	CorrectRejection
322.559	2	TrialStart	Standard	117	0	0	1	n/a	CorrectRejection
324.559	0.2	ToneStart	Standard	117	0	0	1	n/a	CorrectRejection
325.809	1	TrialStart	Standard	118	0	0	1	n/a	CorrectRejection
326.809	0.2	ToneStart	Standard	118	0	0	1	n/a	CorrectRejection
328.075	1	TrialStart	Standard	119	0	0	1	n/a	CorrectRejection
329.077	0.2	ToneStart	Standard	119	0	0	1	n/a	CorrectRejection
330.342	1	TrialStart	Standard	120	0	0	1	n/a	CorrectRejection
331.341	0.2	ToneStart	Standard	120	0	0	1	n/a	CorrectRejection
