onset	duration	TrialEvent	ToneLabel	Trial	CRESP	RESP	ACC	RT	Code
0.055	2	TrialStart	Standard	1	0	0	1	n/a	CorrectRejection
2.055	0.2	ToneStart	Standard	1	0	0	1	n/a	CorrectRejection
3.321	2	TrialStart	Standard	2	0	0	1	n/a	CorrectRejection
5.321	0.2	ToneStart	Standard	2	0	0	1	n/a	CorrectRejection
6.588	2	TrialStart	Standard	3	0	0	1	n/a	CorrectRejection
8.587	0.2	ToneStart	Standard	3	0	0	1	n/a	CorrectRejection
9.854	2	TrialStart	Novel	4	0	0	1	n/a	CorrectRejection
11.855	0.2	ToneStart	Novel	4	0	0	1	n/a	CorrectRejection
13.137	1	TrialStart	Standard	5	0	0	1	n/a	CorrectRejection
14.137	0.2	ToneStart	Standard	5	0	0	1	n/a	CorrectRejection
15.404	1	TrialStart	Standard	6	0	0	1	n/a	CorrectRejection
16.422	0.2	ToneStart	Standard	6	0	0	1	n/a	CorrectRejection
17.687	2	TrialStart	Standard	7	0	0	1	n/a	CorrectRejection
19.686	0.2	ToneStart	Standard	7	0	0	1	n/a	CorrectRejection
20.953	1	TrialStart	Standard	8	0	0	1	n/a	CorrectRejection
21.953	0.2	ToneStart	Standard	8	0	0	1	n/a	CorrectRejection
23.236	1	TrialStart	Standard	9	0	0	1	n/a	CorrectRejection
24.236	0.2	ToneStart	Standard	9	0	0	1	n/a	CorrectRejection
25.503	1	TrialStart	Standard	10	0	0	1	n/a	CorrectRejection
26.502	0.2	ToneStart	Standard	10	0	0	1	n/a	CorrectRejection
27.769	1	TrialStart	Oddball	11	1	1	1	365	Hit
28.802	0.2	ToneStart	Oddball	11	1	1	1	365	Hit
30.069	1	TrialStart	Standard	12	0	0	1	n/a	CorrectRejection
31.087	0.2	ToneStart	Standard	12	0	0	1	n/a	CorrectRejection
32.352	2	TrialStart	Standard	13	0	0	1	n/a	CorrectRejection
34.352	0.2	ToneStart	Standard	13	0	0	1	n/a	CorrectRejection
35.618	1	TrialStart	Standard	14	0	0	1	n/a	CorrectRejection
36.619	0.2	ToneStart	Standard	14	0	0	1	n/a	CorrectRejection
37.885	2	TrialStart	Standard	15	0	0	1	n/a	CorrectRejection
39.885	0.2	ToneStart	Standard	15	0	0	1	n/a	CorrectRejection
41.151	2	TrialStart	Standard	16	0	0	1	n/a	CorrectRejection
43.151	0.2	ToneStart	Standard	16	0	0	1	n/a	CorrectRejection
44.418	1	TrialStart	Novel	17	0	0	1	n/a	CorrectRejection
45.417	0.2	ToneStart	Novel	17	0	0	1	n/a	CorrectRejection
46.701	2	TrialStart	Standard	18	0	0	1	n/a	CorrectRejection
48.7	0.2	ToneStart	Standard	18	0	0	1	n/a	CorrectRejection
49.967	2	TrialStart	Standard	19	0	0	1	n/a	CorrectRejection
51.967	0.2	ToneStart	Standard	19	0	0	1	n/a	CorrectRejection
53.25	1	TrialStart	Standard	20	0	0	1	n/a	CorrectRejection
54.25	0.2	ToneStart	Standard	20	0	0	1	n/a	CorrectRejection
55.517	2	TrialStart	Standard	21	0	0	1	n/a	CorrectRejection
57.516	0.2	ToneStart	Standard	21	0	0	1	n/a	CorrectRejection
58.783	2	TrialStart	Standard	22	0	0	1	n/a	CorrectRejection
60.783	0.2	ToneStart	Standard	22	0	0	1	n/a	CorrectRejection
62.049	1	TrialStart	Novel	23	0	0	1	n/a	CorrectRejection
63.049	0.2	ToneStart	Novel	23	0	0	1	n/a	CorrectRejection
64.316	2	TrialStart	Oddball	24	1	1	1	402	Hit
66.316	0.2	ToneStart	Oddball	24	1	1	1	402	Hit
67.582	2	TrialStart	Standard	25	0	0	1	n/a	CorrectRejection
69.583	0.2	ToneStart	Standard	25	0	0	1	n/a	CorrectRejection
70.849	2	TrialStart	Standard	26	0	0	1	n/a	CorrectRejection
72.848	0.2	ToneStart	Standard	26	0	0	1	n/a	CorrectRejection
74.099	1	TrialStart	Standard	27	0	0	1	n/a	CorrectRejection
75.098	0.2	ToneStart	Standard	27	0	0	1	n/a	CorrectRejection
76.348	2	TrialStart	Standard	28	0	0	1	n/a	CorrectRejection
78.348	0.2	ToneStart	Standard	28	0	0	1	n/a	CorrectRejection
79.614	2	TrialStart	Oddball	29	1	1	1	499	Hit
81.614	0.2	ToneStart	Oddball	29	1	1	1	499	Hit
82.881	1	TrialStart	Novel	30	0	0	1	n/a	CorrectRejection
83.897	0.2	ToneStart	Novel	30	0	0	1	n/a	CorrectRejection
85.147	1	TrialStart	Standard	31	0	0	1	n/a	CorrectRejection
86.147	0.2	ToneStart	Standard	31	0	0	1	n/a	CorrectRejection
87.414	2	TrialStart	Standard	32	0	0	1	n/a	CorrectRejection
89.413	0.2	ToneStart	Standard	32	0	0	1	n/a	CorrectRejection
90.663	1	TrialStart	Novel	33	0	0	1	n/a	CorrectRejection
91.664	0.2	ToneStart	Novel	33	0	0	1	n/a	CorrectRejection
92.93	2	TrialStart	Standard	34	0	0	1	n/a	CorrectRejection
94.93	0.2	ToneStart	Standard	34	0	0	1	n/a	CorrectRejection
96.18	2	TrialStart	Standard	35	0	0	1	n/a	CorrectRejection
98.179	0.2	ToneStart	Standard	35	0	0	1	n/a	CorrectRejection
99.429	1	TrialStart	Standard	36	0	0	1	n/a	CorrectRejection
100.446	0.2	ToneStart	Standard	36	0	0	1	n/a	CorrectRejection
101.696	1	TrialStart	Standard	37	0	0	1	n/a	CorrectRejection
102.696	0.2	ToneStart	Standard	37	0	0	1	n/a	CorrectRejection
103.968	2	TrialStart	Standard	38	0	0	1	n/a	CorrectRejection
105.979	0.2	ToneStart	Standard	38	0	0	1	n/a	CorrectRejection
107.245	2	TrialStart	Oddball	39	1	1	1	495	Hit
109.245	0.2	ToneStart	Oddball	39	1	1	1	495	Hit
110.512	2	TrialStart	Standard	40	0	0	1	n/a	CorrectRejection
112.511	0.2	ToneStart	Standard	40	0	0	1	n/a	CorrectRejection
113.762	2	TrialStart	Standard	41	0	0	1	n/a	CorrectRejection
115.761	0.2	ToneStart	Standard	41	0	0	1	n/a	CorrectRejection
117.013	1	TrialStart	Standard	42	0	0	1	n/a	CorrectRejection
118.028	0.2	ToneStart	Standard	42	0	0	1	n/a	CorrectRejection
119.278	1	TrialStart	Standard	43	0	0	1	n/a	CorrectRejection
120.277	0.2	ToneStart	Standard	43	0	0	1	n/a	CorrectRejection
121.544	1	TrialStart	Novel	44	0	0	1	n/a	CorrectRejection
122.545	0.2	ToneStart	Novel	44	0	0	1	n/a	CorrectRejection
123.81	1	TrialStart	Standard	45	0	0	1	n/a	CorrectRejection
124.811	0.2	ToneStart	Standard	45	0	0	1	n/a	CorrectRejection
126.06	2	TrialStart	Standard	46	0	0	1	n/a	CorrectRejection
128.061	0.2	ToneStart	Standard	46	0	0	1	n/a	CorrectRejection
129.327	2	TrialStart	Standard	47	0	0	1	n/a	CorrectRejection
131.326	0.2	ToneStart	Standard	47	0	0	1	n/a	CorrectRejection
132.576	1	TrialStart	Standard	48	0	0	1	n/a	CorrectRejection
133.578	0.2	ToneStart	Standard	48	0	0	1	n/a	CorrectRejection
134.826	2	TrialStart	Oddball	49	1	1	1	499	Hit
136.826	0.2	ToneStart	Oddball	49	1	1	1	499	Hit
138.076	2	TrialStart	Standard	50	0	0	1	n/a	CorrectRejection
140.076	0.2	ToneStart	Standard	50	0	0	1	n/a	CorrectRejection
141.326	2	TrialStart	Standard	51	0	0	1	n/a	CorrectRejection
143.325	0.2	ToneStart	Standard	51	0	0	1	n/a	CorrectRejection
144.575	2	TrialStart	Standard	52	0	0	1	n/a	CorrectRejection
146.575	0.2	ToneStart	Standard	52	0	0	1	n/a	CorrectRejection
147.825	2	TrialStart	Novel	53	0	0	1	n/a	CorrectRejection
149.827	0.2	ToneStart	Novel	53	0	0	1	n/a	CorrectRejection
151.075	2	TrialStart	Standard	54	0	0	1	n/a	CorrectRejection
153.075	0.2	ToneStart	Standard	54	0	0	1	n/a	CorrectRejection
154.342	1	TrialStart	Standard	55	0	0	1	n/a	CorrectRejection
155.374	0.2	ToneStart	Standard	55	0	0	1	n/a	CorrectRejection
156.624	1	TrialStart	Novel	56	0	0	1	n/a	CorrectRejection
157.624	0.2	ToneStart	Novel	56	0	0	1	n/a	CorrectRejection
158.907	2	TrialStart	Standard	57	0	0	1	n/a	CorrectRejection
160.907	0.2	ToneStart	Standard	57	0	0	1	n/a	CorrectRejection
162.157	1	TrialStart	Standard	58	0	0	1	n/a	CorrectRejection
163.164	0.2	ToneStart	Standard	58	0	0	1	n/a	CorrectRejection
164.44	1	TrialStart	Standard	59	0	0	1	n/a	CorrectRejection
165.44	0.2	ToneStart	Standard	59	0	0	1	n/a	CorrectRejection
166.69	1	TrialStart	Oddball	60	1	1	1	529	Hit
167.692	0.2	ToneStart	Oddball	60	1	1	1	529	Hit
168.94	1	TrialStart	Standard	61	0	0	1	n/a	CorrectRejection
169.956	0.2	ToneStart	Standard	61	0	0	1	n/a	CorrectRejection
171.223	2	TrialStart	Standard	62	0	0	1	n/a	CorrectRejection
173.223	0.2	ToneStart	Standard	62	0	0	1	n/a	CorrectRejection
174.496	2	TrialStart	Standard	63	0	0	1	n/a	CorrectRejection
176.506	0.2	ToneStart	Standard	63	0	0	1	n/a	CorrectRejection
177.772	1	TrialStart	Standard	64	0	0	1	n/a	CorrectRejection
178.772	0.2	ToneStart	Standard	64	0	0	1	n/a	CorrectRejection
180.022	1	TrialStart	Novel	65	0	0	1	n/a	CorrectRejection
181.023	0.2	ToneStart	Novel	65	0	0	1	n/a	CorrectRejection
182.272	2	TrialStart	Standard	66	0	0	1	n/a	CorrectRejection
184.272	0.2	ToneStart	Standard	66	0	0	1	n/a	CorrectRejection
185.555	1	TrialStart	Standard	67	0	0	1	n/a	CorrectRejection
186.556	0.2	ToneStart	Standard	67	0	0	1	n/a	CorrectRejection
187.821	2	TrialStart	Oddball	68	1	1	1	442	Hit
189.821	0.2	ToneStart	Oddball	68	1	1	1	442	Hit
191.071	1	TrialStart	Standard	69	0	0	1	n/a	CorrectRejection
192.073	0.2	ToneStart	Standard	69	0	0	1	n/a	CorrectRejection
193.321	1	TrialStart	Standard	70	0	0	1	n/a	CorrectRejection
194.321	0.2	ToneStart	Standard	70	0	0	1	n/a	CorrectRejection
195.587	2	TrialStart	Standard	71	0	0	1	n/a	CorrectRejection
197.587	0.2	ToneStart	Standard	71	0	0	1	n/a	CorrectRejection
198.837	2	TrialStart	Standard	72	0	0	1	n/a	CorrectRejection
200.837	0.2	ToneStart	Standard	72	0	0	1	n/a	CorrectRejection
202.104	1	TrialStart	Standard	73	0	0	1	n/a	CorrectRejection
203.103	0.2	ToneStart	Standard	73	0	0	1	n/a	CorrectRejection
204.37	2	TrialStart	Standard	74	0	0	1	n/a	CorrectRejection
206.37	0.2	ToneStart	Standard	74	0	0	1	n/a	CorrectRejection
207.62	2	TrialStart	Oddball	75	1	1	1	399	Hit
209.62	0.2	ToneStart	Oddball	75	1	1	1	399	Hit
210.869	2	TrialStart	Standard	76	0	0	1	n/a	CorrectRejection
212.869	0.2	ToneStart	Standard	76	0	0	1	n/a	CorrectRejection
214.119	1	TrialStart	Standard	77	0	0	1	n/a	CorrectRejection
215.121	0.2	ToneStart	Standard	77	0	0	1	n/a	CorrectRejection
216.37	2	TrialStart	Standard	78	0	0	1	n/a	CorrectRejection
218.369	0.2	ToneStart	Standard	78	0	0	1	n/a	CorrectRejection
219.619	1	TrialStart	Novel	79	0	0	1	n/a	CorrectRejection
220.619	0.2	ToneStart	Novel	79	0	0	1	n/a	CorrectRejection
221.87	2	TrialStart	Standard	80	0	0	1	n/a	CorrectRejection
223.868	0.2	ToneStart	Standard	80	0	0	1	n/a	CorrectRejection
225.118	2	TrialStart	Standard	81	0	0	1	n/a	CorrectRejection
227.119	0.2	ToneStart	Standard	81	0	0	1	n/a	CorrectRejection
228.368	2	TrialStart	Oddball	82	1	1	1	475	Hit
230.368	0.2	ToneStart	Oddball	82	1	1	1	475	Hit
231.618	2	TrialStart	Standard	83	0	0	1	n/a	CorrectRejection
233.617	0.2	ToneStart	Standard	83	0	0	1	n/a	CorrectRejection
234.867	2	TrialStart	Standard	84	0	0	1	n/a	CorrectRejection
236.867	0.2	ToneStart	Standard	84	0	0	1	n/a	CorrectRejection
238.117	2	TrialStart	Novel	85	0	0	1	n/a	CorrectRejection
240.117	0.2	ToneStart	Novel	85	0	0	1	n/a	CorrectRejection
241.367	1	TrialStart	Standard	86	0	0	1	n/a	CorrectRejection
242.383	0.2	ToneStart	Standard	86	0	0	1	n/a	CorrectRejection
243.633	2	TrialStart	Standard	87	0	0	1	n/a	CorrectRejection
245.634	0.2	ToneStart	Standard	87	0	0	1	n/a	CorrectRejection
246.883	1	TrialStart	Standard	88	0	0	1	n/a	CorrectRejection
247.896	0.2	ToneStart	Standard	88	0	0	1	n/a	CorrectRejection
249.149	1	TrialStart	Standard	89	0	0	1	n/a	CorrectRejection
250.149	0.2	ToneStart	Standard	89	0	0	1	n/a	CorrectRejection
251.399	2	TrialStart	Standard	90	0	0	1	n/a	CorrectRejection
253.399	0.2	ToneStart	Standard	90	0	0	1	n/a	CorrectRejection
254.666	1	TrialStart	Standard	91	0	0	1	n/a	CorrectRejection
255.665	0.2	ToneStart	Standard	91	0	0	1	n/a	CorrectRejection
256.932	1	TrialStart	Standard	92	0	0	1	n/a	CorrectRejection
257.949	0.2	ToneStart	Standard	92	0	0	1	n/a	CorrectRejection
259.198	2	TrialStart	Standard	93	0	0	1	n/a	CorrectRejection
261.198	0.2	ToneStart	Standard	93	0	0	1	n/a	CorrectRejection
262.448	1	TrialStart	Novel	94	0	0	1	n/a	CorrectRejection
263.448	0.2	ToneStart	Novel	94	0	0	1	n/a	CorrectRejection
264.698	2	TrialStart	Oddball	95	1	1	1	511	Hit
266.698	0.2	ToneStart	Oddball	95	1	1	1	511	Hit
267.965	2	TrialStart	Standard	96	0	0	1	n/a	CorrectRejection
269.964	0.2	ToneStart	Standard	96	0	0	1	n/a	CorrectRejection
271.214	1	TrialStart	Standard	97	0	0	1	n/a	CorrectRejection
272.218	0.2	ToneStart	Standard	97	0	0	1	n/a	CorrectRejection
273.481	2	TrialStart	Standard	98	0	0	1	n/a	CorrectRejection
275.48	0.2	ToneStart	Standard	98	0	0	1	n/a	CorrectRejection
276.73	1	TrialStart	Standard	99	0	0	1	n/a	CorrectRejection
277.733	0.2	ToneStart	Standard	99	0	0	1	n/a	CorrectRejection
278.98	1	TrialStart	Standard	100	0	0	1	n/a	CorrectRejection
279.98	0.2	ToneStart	Standard	100	0	0	1	n/a	CorrectRejection
281.23	1	TrialStart	Standard	101	0	0	1	n/a	CorrectRejection
282.23	0.2	ToneStart	Standard	101	0	0	1	n/a	CorrectRejection
283.48	1	TrialStart	Standard	102	0	0	1	n/a	CorrectRejection
284.496	0.2	ToneStart	Standard	102	0	0	1	n/a	CorrectRejection
285.763	1	TrialStart	Standard	103	0	0	1	n/a	CorrectRejection
286.764	0.2	ToneStart	Standard	103	0	0	1	n/a	CorrectRejection
288.013	1	TrialStart	Standard	104	0	0	1	n/a	CorrectRejection
289.029	0.2	ToneStart	Standard	104	0	0	1	n/a	CorrectRejection
290.279	1	TrialStart	Oddball	105	1	1	1	597	Hit
291.281	0.2	ToneStart	Oddball	105	1	1	1	597	Hit
292.529	2	TrialStart	Standard	106	0	0	1	n/a	CorrectRejection
294.529	0.2	ToneStart	Standard	106	0	0	1	n/a	CorrectRejection
295.779	1	TrialStart	Standard	107	0	0	1	n/a	CorrectRejection
296.778	0.2	ToneStart	Standard	107	0	0	1	n/a	CorrectRejection
298.028	1	TrialStart	Standard	108	0	0	1	n/a	CorrectRejection
299.029	0.2	ToneStart	Standard	108	0	0	1	n/a	CorrectRejection
300.295	1	TrialStart	Standard	109	0	0	1	n/a	CorrectRejection
301.311	0.2	ToneStart	Standard	109	0	0	1	n/a	CorrectRejection
302.561	2	TrialStart	Standard	110	0	0	1	n/a	CorrectRejection
304.562	0.2	ToneStart	Standard	110	0	0	1	n/a	CorrectRejection
305.811	1	TrialStart	Oddball	111	1	1	1	597	Hit
306.812	0.2	ToneStart	Oddball	111	1	1	1	597	Hit
308.061	1	TrialStart	Standard	112	0	0	1	n/a	CorrectRejection
309.061	0.2	ToneStart	Standard	112	0	0	1	n/a	CorrectRejection
310.311	2	TrialStart	Standard	113	0	0	1	n/a	CorrectRejection
312.31	0.2	ToneStart	Standard	113	0	0	1	n/a	CorrectRejection
313.56	2	TrialStart	Standard	114	0	0	1	n/a	CorrectRejection
315.56	0.2	ToneStart	Standard	114	0	0	1	n/a	CorrectRejection
316.81	2	TrialStart	Standard	115	0	0	1	n/a	CorrectRejection
318.81	0.2	ToneStart	Standard	115	0	0	1	n/a	CorrectRejection
320.06	1	TrialStart	Standard	116	0	0	1	n/a	CorrectRejection
321.061	0.2	ToneStart	Standard	116	0	0	1	n/a	CorrectRejection
322.31	2	TrialStart	Standard	117	0	0	1	n/a	CorrectRejection
324.309	0.2	ToneStart	Standard	117	0	0	1	n/a	CorrectRejection
325.559	1	TrialStart	Standard	118	0	0	1	n/a	CorrectRejection
326.56	0.2	ToneStart	Standard	118	0	0	1	n/a	CorrectRejection
327.826	1	TrialStart	Standard	119	0	0	1	n/a	CorrectRejection
328.826	0.2	ToneStart	Standard	119	0	0	1	n/a	CorrectRejection
330.076	1	TrialStart	Standard	120	0	0	1	n/a	CorrectRejection
331.075	0.2	ToneStart	Standard	120	0	0	1	n/a	CorrectRejection
