onset	duration	TrialEvent	ToneLabel	Trial	CRESP	RESP	ACC	RT	Code
0.036	2	TrialStart	Standard	1	0	0	1	n/a	CorrectRejection
2.037	0.2	ToneStart	Standard	1	0	0	1	n/a	CorrectRejection
3.286	2	TrialStart	Standard	2	0	0	1	n/a	CorrectRejection
5.285	0.2	ToneStart	Standard	2	0	0	1	n/a	CorrectRejection
6.535	2	TrialStart	Standard	3	0	0	1	n/a	CorrectRejection
8.535	0.2	ToneStart	Standard	3	0	0	1	n/a	CorrectRejection
9.785	2	TrialStart	Novel	4	0	0	1	n/a	CorrectRejection
11.785	0.2	ToneStart	Novel	4	0	0	1	n/a	CorrectRejection
13.035	1	TrialStart	Standard	5	0	0	1	n/a	CorrectRejection
14.035	0.2	ToneStart	Standard	5	0	0	1	n/a	CorrectRejection
15.284	1	TrialStart	Standard	6	0	0	1	n/a	CorrectRejection
16.284	0.2	ToneStart	Standard	6	0	0	1	n/a	CorrectRejection
17.534	2	TrialStart	Standard	7	0	0	1	n/a	CorrectRejection
19.534	0.2	ToneStart	Standard	7	0	0	1	n/a	CorrectRejection
20.784	1	TrialStart	Standard	8	0	0	1	n/a	CorrectRejection
21.784	0.2	ToneStart	Standard	8	0	0	1	n/a	CorrectRejection
23.034	1	TrialStart	Standard	9	0	0	1	n/a	CorrectRejection
24.033	0.2	ToneStart	Standard	9	0	0	1	n/a	CorrectRejection
25.283	1	TrialStart	Standard	10	0	0	1	n/a	CorrectRejection
26.283	0.2	ToneStart	Standard	10	0	0	1	n/a	CorrectRejection
27.533	1	TrialStart	Oddball	11	1	1	1	408	Hit
28.533	0.2	ToneStart	Oddball	11	1	1	1	408	Hit
29.783	1	TrialStart	Standard	12	0	0	1	n/a	CorrectRejection
30.783	0.2	ToneStart	Standard	12	0	0	1	n/a	CorrectRejection
32.033	2	TrialStart	Standard	13	0	0	1	n/a	CorrectRejection
34.032	0.2	ToneStart	Standard	13	0	0	1	n/a	CorrectRejection
35.282	1	TrialStart	Standard	14	0	0	1	n/a	CorrectRejection
36.282	0.2	ToneStart	Standard	14	0	0	1	n/a	CorrectRejection
37.532	2	TrialStart	Standard	15	0	0	1	n/a	CorrectRejection
39.532	0.2	ToneStart	Standard	15	0	0	1	n/a	CorrectRejection
40.782	2	TrialStart	Standard	16	0	0	1	n/a	CorrectRejection
42.781	0.2	ToneStart	Standard	16	0	0	1	n/a	CorrectRejection
44.031	1	TrialStart	Novel	17	0	0	1	n/a	CorrectRejection
45.031	0.2	ToneStart	Novel	17	0	0	1	n/a	CorrectRejection
46.281	2	TrialStart	Standard	18	0	0	1	n/a	CorrectRejection
48.281	0.2	ToneStart	Standard	18	0	0	1	n/a	CorrectRejection
49.531	2	TrialStart	Standard	19	0	0	1	n/a	CorrectRejection
51.531	0.2	ToneStart	Standard	19	0	0	1	n/a	CorrectRejection
52.78	1	TrialStart	Standard	20	0	0	1	n/a	CorrectRejection
53.78	0.2	ToneStart	Standard	20	0	0	1	n/a	CorrectRejection
55.03	2	TrialStart	Standard	21	0	0	1	n/a	CorrectRejection
57.03	0.2	ToneStart	Standard	21	0	0	1	n/a	CorrectRejection
58.28	2	TrialStart	Standard	22	0	0	1	n/a	CorrectRejection
60.28	0.2	ToneStart	Standard	22	0	0	1	n/a	CorrectRejection
61.529	1	TrialStart	Novel	23	0	0	1	n/a	CorrectRejection
62.529	0.2	ToneStart	Novel	23	0	0	1	n/a	CorrectRejection
63.779	2	TrialStart	Oddball	24	1	1	1	415	Hit
65.779	0.2	ToneStart	Oddball	24	1	1	1	415	Hit
67.029	2	TrialStart	Standard	25	0	0	1	n/a	CorrectRejection
69.029	0.2	ToneStart	Standard	25	0	0	1	n/a	CorrectRejection
70.279	2	TrialStart	Standard	26	0	0	1	n/a	CorrectRejection
72.278	0.2	ToneStart	Standard	26	0	0	1	n/a	CorrectRejection
73.528	1	TrialStart	Standard	27	0	0	1	n/a	CorrectRejection
74.528	0.2	ToneStart	Standard	27	0	0	1	n/a	CorrectRejection
75.778	2	TrialStart	Standard	28	0	0	1	n/a	CorrectRejection
77.778	0.2	ToneStart	Standard	28	0	0	1	n/a	CorrectRejection
79.028	2	TrialStart	Oddball	29	1	1	1	573	Hit
81.027	0.2	ToneStart	Oddball	29	1	1	1	573	Hit
82.277	1	TrialStart	Novel	30	0	0	1	n/a	CorrectRejection
83.277	0.2	ToneStart	Novel	30	0	0	1	n/a	CorrectRejection
84.527	1	TrialStart	Standard	31	0	0	1	n/a	CorrectRejection
85.527	0.2	ToneStart	Standard	31	0	0	1	n/a	CorrectRejection
86.777	2	TrialStart	Standard	32	0	0	1	n/a	CorrectRejection
88.777	0.2	ToneStart	Standard	32	0	0	1	n/a	CorrectRejection
90.026	1	TrialStart	Novel	33	0	1	0	576	FalseAlarm
91.026	0.2	ToneStart	Novel	33	0	1	0	576	FalseAlarm
92.276	2	TrialStart	Standard	34	0	0	1	n/a	CorrectRejection
94.276	0.2	ToneStart	Standard	34	0	0	1	n/a	CorrectRejection
95.526	2	TrialStart	Standard	35	0	0	1	n/a	CorrectRejection
97.526	0.2	ToneStart	Standard	35	0	0	1	n/a	CorrectRejection
98.775	1	TrialStart	Standard	36	0	0	1	n/a	CorrectRejection
99.775	0.2	ToneStart	Standard	36	0	0	1	n/a	CorrectRejection
101.025	1	TrialStart	Standard	37	0	0	1	n/a	CorrectRejection
102.025	0.2	ToneStart	Standard	37	0	0	1	n/a	CorrectRejection
103.275	2	TrialStart	Standard	38	0	0	1	n/a	CorrectRejection
105.275	0.2	ToneStart	Standard	38	0	0	1	n/a	CorrectRejection
106.525	2	TrialStart	Oddball	39	1	1	1	809	Hit
108.524	0.2	ToneStart	Oddball	39	1	1	1	809	Hit
109.774	2	TrialStart	Standard	40	0	0	1	n/a	CorrectRejection
111.774	0.2	ToneStart	Standard	40	0	0	1	n/a	CorrectRejection
113.024	2	TrialStart	Standard	41	0	0	1	n/a	CorrectRejection
115.024	0.2	ToneStart	Standard	41	0	0	1	n/a	CorrectRejection
116.274	1	TrialStart	Standard	42	0	0	1	n/a	CorrectRejection
117.274	0.2	ToneStart	Standard	42	0	0	1	n/a	CorrectRejection
118.523	1	TrialStart	Standard	43	0	0	1	n/a	CorrectRejection
119.524	0.2	ToneStart	Standard	43	0	0	1	n/a	CorrectRejection
120.773	1	TrialStart	Novel	44	0	0	1	n/a	CorrectRejection
121.773	0.2	ToneStart	Novel	44	0	0	1	n/a	CorrectRejection
123.023	1	TrialStart	Standard	45	0	0	1	n/a	CorrectRejection
124.023	0.2	ToneStart	Standard	45	0	0	1	n/a	CorrectRejection
125.273	2	TrialStart	Standard	46	0	0	1	n/a	CorrectRejection
127.272	0.2	ToneStart	Standard	46	0	0	1	n/a	CorrectRejection
128.522	2	TrialStart	Standard	47	0	0	1	n/a	CorrectRejection
130.522	0.2	ToneStart	Standard	47	0	0	1	n/a	CorrectRejection
131.772	1	TrialStart	Standard	48	0	0	1	n/a	CorrectRejection
132.772	0.2	ToneStart	Standard	48	0	0	1	n/a	CorrectRejection
134.022	2	TrialStart	Oddball	49	1	1	1	648	Hit
136.021	0.2	ToneStart	Oddball	49	1	1	1	648	Hit
137.271	2	TrialStart	Standard	50	0	0	1	n/a	CorrectRejection
139.271	0.2	ToneStart	Standard	50	0	0	1	n/a	CorrectRejection
140.521	2	TrialStart	Standard	51	0	0	1	n/a	CorrectRejection
142.521	0.2	ToneStart	Standard	51	0	0	1	n/a	CorrectRejection
143.771	2	TrialStart	Standard	52	0	0	1	n/a	CorrectRejection
145.77	0.2	ToneStart	Standard	52	0	0	1	n/a	CorrectRejection
147.02	2	TrialStart	Novel	53	0	0	1	n/a	CorrectRejection
149.02	0.2	ToneStart	Novel	53	0	0	1	n/a	CorrectRejection
150.27	2	TrialStart	Standard	54	0	0	1	n/a	CorrectRejection
152.27	0.2	ToneStart	Standard	54	0	0	1	n/a	CorrectRejection
153.52	1	TrialStart	Standard	55	0	0	1	n/a	CorrectRejection
154.52	0.2	ToneStart	Standard	55	0	0	1	n/a	CorrectRejection
155.769	1	TrialStart	Novel	56	0	0	1	n/a	CorrectRejection
156.769	0.2	ToneStart	Novel	56	0	0	1	n/a	CorrectRejection
158.019	2	TrialStart	Standard	57	0	0	1	n/a	CorrectRejection
160.019	0.2	ToneStart	Standard	57	0	0	1	n/a	CorrectRejection
161.269	1	TrialStart	Standard	58	0	0	1	n/a	CorrectRejection
162.269	0.2	ToneStart	Standard	58	0	0	1	n/a	CorrectRejection
163.519	1	TrialStart	Standard	59	0	0	1	n/a	CorrectRejection
164.518	0.2	ToneStart	Standard	59	0	0	1	n/a	CorrectRejection
165.768	1	TrialStart	Oddball	60	1	1	1	682	Hit
166.768	0.2	ToneStart	Oddball	60	1	1	1	682	Hit
168.018	1	TrialStart	Standard	61	0	0	1	n/a	CorrectRejection
169.018	0.2	ToneStart	Standard	61	0	0	1	n/a	CorrectRejection
170.268	2	TrialStart	Standard	62	0	0	1	n/a	CorrectRejection
172.268	0.2	ToneStart	Standard	62	0	0	1	n/a	CorrectRejection
173.517	2	TrialStart	Standard	63	0	0	1	n/a	CorrectRejection
175.517	0.2	ToneStart	Standard	63	0	0	1	n/a	CorrectRejection
176.767	1	TrialStart	Standard	64	0	0	1	n/a	CorrectRejection
177.767	0.2	ToneStart	Standard	64	0	0	1	n/a	CorrectRejection
179.017	1	TrialStart	Novel	65	0	0	1	n/a	CorrectRejection
180.017	0.2	ToneStart	Novel	65	0	0	1	n/a	CorrectRejection
181.25	2	TrialStart	Standard	66	0	0	1	n/a	CorrectRejection
183.25	0.2	ToneStart	Standard	66	0	0	1	n/a	CorrectRejection
184.5	1	TrialStart	Standard	67	0	0	1	n/a	CorrectRejection
185.5	0.2	ToneStart	Standard	67	0	0	1	n/a	CorrectRejection
186.749	2	TrialStart	Oddball	68	1	1	1	637	Hit
188.749	0.2	ToneStart	Oddball	68	1	1	1	637	Hit
189.999	1	TrialStart	Standard	69	0	0	1	n/a	CorrectRejection
190.999	0.2	ToneStart	Standard	69	0	0	1	n/a	CorrectRejection
192.249	1	TrialStart	Standard	70	0	0	1	n/a	CorrectRejection
193.249	0.2	ToneStart	Standard	70	0	0	1	n/a	CorrectRejection
194.499	2	TrialStart	Standard	71	0	0	1	n/a	CorrectRejection
196.498	0.2	ToneStart	Standard	71	0	0	1	n/a	CorrectRejection
197.748	2	TrialStart	Standard	72	0	0	1	n/a	CorrectRejection
199.748	0.2	ToneStart	Standard	72	0	0	1	n/a	CorrectRejection
200.998	1	TrialStart	Standard	73	0	0	1	n/a	CorrectRejection
201.998	0.2	ToneStart	Standard	73	0	0	1	n/a	CorrectRejection
203.231	2	TrialStart	Standard	74	0	0	1	n/a	CorrectRejection
205.231	0.2	ToneStart	Standard	74	0	0	1	n/a	CorrectRejection
206.464	2	TrialStart	Oddball	75	1	1	1	680	Hit
208.464	0.2	ToneStart	Oddball	75	1	1	1	680	Hit
209.697	2	TrialStart	Standard	76	0	0	1	n/a	CorrectRejection
211.697	0.2	ToneStart	Standard	76	0	0	1	n/a	CorrectRejection
212.947	1	TrialStart	Standard	77	0	0	1	n/a	CorrectRejection
213.946	0.2	ToneStart	Standard	77	0	0	1	n/a	CorrectRejection
215.196	2	TrialStart	Standard	78	0	0	1	n/a	CorrectRejection
217.196	0.2	ToneStart	Standard	78	0	0	1	n/a	CorrectRejection
218.446	1	TrialStart	Novel	79	0	0	1	n/a	CorrectRejection
219.446	0.2	ToneStart	Novel	79	0	0	1	n/a	CorrectRejection
220.696	2	TrialStart	Standard	80	0	0	1	n/a	CorrectRejection
222.696	0.2	ToneStart	Standard	80	0	0	1	n/a	CorrectRejection
223.929	2	TrialStart	Standard	81	0	0	1	n/a	CorrectRejection
225.929	0.2	ToneStart	Standard	81	0	0	1	n/a	CorrectRejection
227.162	2	TrialStart	Oddball	82	1	1	1	506	Hit
229.162	0.2	ToneStart	Oddball	82	1	1	1	506	Hit
230.411	2	TrialStart	Standard	83	0	0	1	n/a	CorrectRejection
232.411	0.2	ToneStart	Standard	83	0	0	1	n/a	CorrectRejection
233.661	2	TrialStart	Standard	84	0	0	1	n/a	CorrectRejection
235.661	0.2	ToneStart	Standard	84	0	0	1	n/a	CorrectRejection
236.894	2	TrialStart	Novel	85	0	0	1	n/a	CorrectRejection
238.894	0.2	ToneStart	Novel	85	0	0	1	n/a	CorrectRejection
240.144	1	TrialStart	Standard	86	0	0	1	n/a	CorrectRejection
241.144	0.2	ToneStart	Standard	86	0	0	1	n/a	CorrectRejection
242.394	2	TrialStart	Standard	87	0	0	1	n/a	CorrectRejection
244.393	0.2	ToneStart	Standard	87	0	0	1	n/a	CorrectRejection
245.626	1	TrialStart	Standard	88	0	0	1	n/a	CorrectRejection
246.626	0.2	ToneStart	Standard	88	0	0	1	n/a	CorrectRejection
247.876	1	TrialStart	Standard	89	0	0	1	n/a	CorrectRejection
248.876	0.2	ToneStart	Standard	89	0	0	1	n/a	CorrectRejection
250.126	2	TrialStart	Standard	90	0	0	1	n/a	CorrectRejection
252.126	0.2	ToneStart	Standard	90	0	0	1	n/a	CorrectRejection
253.359	1	TrialStart	Standard	91	0	0	1	n/a	CorrectRejection
254.359	0.2	ToneStart	Standard	91	0	0	1	n/a	CorrectRejection
255.609	1	TrialStart	Standard	92	0	0	1	n/a	CorrectRejection
256.609	0.2	ToneStart	Standard	92	0	0	1	n/a	CorrectRejection
257.842	2	TrialStart	Standard	93	0	0	1	n/a	CorrectRejection
259.842	0.2	ToneStart	Standard	93	0	0	1	n/a	CorrectRejection
261.091	1	TrialStart	Novel	94	0	0	1	n/a	CorrectRejection
262.091	0.2	ToneStart	Novel	94	0	0	1	n/a	CorrectRejection
263.341	2	TrialStart	Oddball	95	1	1	1	792	Hit
265.341	0.2	ToneStart	Oddball	95	1	1	1	792	Hit
266.591	2	TrialStart	Standard	96	0	0	1	n/a	CorrectRejection
268.591	0.2	ToneStart	Standard	96	0	0	1	n/a	CorrectRejection
269.824	1	TrialStart	Standard	97	0	0	1	n/a	CorrectRejection
270.824	0.2	ToneStart	Standard	97	0	0	1	n/a	CorrectRejection
272.074	2	TrialStart	Standard	98	0	0	1	n/a	CorrectRejection
274.073	0.2	ToneStart	Standard	98	0	0	1	n/a	CorrectRejection
275.307	1	TrialStart	Standard	99	0	0	1	n/a	CorrectRejection
276.307	0.2	ToneStart	Standard	99	0	0	1	n/a	CorrectRejection
277.556	1	TrialStart	Standard	100	0	0	1	n/a	CorrectRejection
278.556	0.2	ToneStart	Standard	100	0	0	1	n/a	CorrectRejection
279.806	1	TrialStart	Standard	101	0	0	1	n/a	CorrectRejection
280.806	0.2	ToneStart	Standard	101	0	0	1	n/a	CorrectRejection
282.056	1	TrialStart	Standard	102	0	0	1	n/a	CorrectRejection
283.056	0.2	ToneStart	Standard	102	0	0	1	n/a	CorrectRejection
284.306	1	TrialStart	Standard	103	0	0	1	n/a	CorrectRejection
285.306	0.2	ToneStart	Standard	103	0	0	1	n/a	CorrectRejection
286.555	1	TrialStart	Standard	104	0	0	1	n/a	CorrectRejection
287.555	0.2	ToneStart	Standard	104	0	0	1	n/a	CorrectRejection
288.805	1	TrialStart	Oddball	105	1	1	1	731	Hit
289.805	0.2	ToneStart	Oddball	105	1	1	1	731	Hit
291.055	2	TrialStart	Standard	106	0	0	1	n/a	CorrectRejection
293.055	0.2	ToneStart	Standard	106	0	0	1	n/a	CorrectRejection
294.305	1	TrialStart	Standard	107	0	0	1	n/a	CorrectRejection
295.304	0.2	ToneStart	Standard	107	0	0	1	n/a	CorrectRejection
296.554	1	TrialStart	Standard	108	0	0	1	n/a	CorrectRejection
297.554	0.2	ToneStart	Standard	108	0	0	1	n/a	CorrectRejection
298.804	1	TrialStart	Standard	109	0	0	1	n/a	CorrectRejection
299.804	0.2	ToneStart	Standard	109	0	0	1	n/a	CorrectRejection
301.054	2	TrialStart	Standard	110	0	0	1	n/a	CorrectRejection
303.054	0.2	ToneStart	Standard	110	0	0	1	n/a	CorrectRejection
304.304	1	TrialStart	Oddball	111	1	1	1	615	Hit
305.303	0.2	ToneStart	Oddball	111	1	1	1	615	Hit
306.553	1	TrialStart	Standard	112	0	0	1	n/a	CorrectRejection
307.553	0.2	ToneStart	Standard	112	0	0	1	n/a	CorrectRejection
308.803	2	TrialStart	Standard	113	0	0	1	n/a	CorrectRejection
310.803	0.2	ToneStart	Standard	113	0	0	1	n/a	CorrectRejection
312.036	2	TrialStart	Standard	114	0	0	1	n/a	CorrectRejection
314.036	0.2	ToneStart	Standard	114	0	0	1	n/a	CorrectRejection
315.269	2	TrialStart	Standard	115	0	0	1	n/a	CorrectRejection
317.269	0.2	ToneStart	Standard	115	0	0	1	n/a	CorrectRejection
318.502	1	TrialStart	Standard	116	0	0	1	n/a	CorrectRejection
319.502	0.2	ToneStart	Standard	116	0	0	1	n/a	CorrectRejection
320.752	2	TrialStart	Standard	117	0	0	1	n/a	CorrectRejection
322.752	0.2	ToneStart	Standard	117	0	0	1	n/a	CorrectRejection
324.001	1	TrialStart	Standard	118	0	0	1	n/a	CorrectRejection
325.001	0.2	ToneStart	Standard	118	0	0	1	n/a	CorrectRejection
326.251	1	TrialStart	Standard	119	0	0	1	n/a	CorrectRejection
327.251	0.2	ToneStart	Standard	119	0	0	1	n/a	CorrectRejection
328.501	1	TrialStart	Standard	120	0	0	1	n/a	CorrectRejection
329.501	0.2	ToneStart	Standard	120	0	0	1	n/a	CorrectRejection
