onset	duration	TrialEvent	ToneLabel	Trial	CRESP	RESP	ACC	RT	Code
0.054	2	TrialStart	Standard	1	0	0	1	n/a	CorrectRejection
2.055	0.2	ToneStart	Standard	1	0	0	1	n/a	CorrectRejection
3.304	2	TrialStart	Standard	2	0	0	1	n/a	CorrectRejection
5.304	0.2	ToneStart	Standard	2	0	0	1	n/a	CorrectRejection
6.554	2	TrialStart	Standard	3	0	0	1	n/a	CorrectRejection
8.57	0.2	ToneStart	Standard	3	0	0	1	n/a	CorrectRejection
9.82	2	TrialStart	Novel	4	0	0	1	n/a	CorrectRejection
11.82	0.2	ToneStart	Novel	4	0	0	1	n/a	CorrectRejection
13.07	1	TrialStart	Standard	5	0	0	1	n/a	CorrectRejection
14.07	0.2	ToneStart	Standard	5	0	0	1	n/a	CorrectRejection
15.319	1	TrialStart	Standard	6	0	0	1	n/a	CorrectRejection
16.32	0.2	ToneStart	Standard	6	0	0	1	n/a	CorrectRejection
17.569	2	TrialStart	Standard	7	0	0	1	n/a	CorrectRejection
19.569	0.2	ToneStart	Standard	7	0	0	1	n/a	CorrectRejection
20.819	1	TrialStart	Standard	8	0	0	1	n/a	CorrectRejection
21.819	0.2	ToneStart	Standard	8	0	0	1	n/a	CorrectRejection
23.069	1	TrialStart	Standard	9	0	0	1	n/a	CorrectRejection
24.069	0.2	ToneStart	Standard	9	0	0	1	n/a	CorrectRejection
25.318	1	TrialStart	Standard	10	0	0	1	n/a	CorrectRejection
26.318	0.2	ToneStart	Standard	10	0	0	1	n/a	CorrectRejection
27.568	1	TrialStart	Oddball	11	1	1	1	448	Hit
28.568	0.2	ToneStart	Oddball	11	1	1	1	448	Hit
29.818	1	TrialStart	Standard	12	0	0	1	n/a	CorrectRejection
30.818	0.2	ToneStart	Standard	12	0	0	1	n/a	CorrectRejection
32.068	2	TrialStart	Standard	13	0	0	1	n/a	CorrectRejection
34.067	0.2	ToneStart	Standard	13	0	0	1	n/a	CorrectRejection
35.317	1	TrialStart	Standard	14	0	0	1	n/a	CorrectRejection
36.317	0.2	ToneStart	Standard	14	0	0	1	n/a	CorrectRejection
37.567	2	TrialStart	Standard	15	0	0	1	n/a	CorrectRejection
39.567	0.2	ToneStart	Standard	15	0	0	1	n/a	CorrectRejection
40.817	2	TrialStart	Standard	16	0	0	1	n/a	CorrectRejection
42.817	0.2	ToneStart	Standard	16	0	0	1	n/a	CorrectRejection
44.066	1	TrialStart	Novel	17	0	0	1	n/a	CorrectRejection
45.067	0.2	ToneStart	Novel	17	0	0	1	n/a	CorrectRejection
46.316	2	TrialStart	Standard	18	0	0	1	n/a	CorrectRejection
48.316	0.2	ToneStart	Standard	18	0	0	1	n/a	CorrectRejection
49.566	2	TrialStart	Standard	19	0	0	1	n/a	CorrectRejection
51.566	0.2	ToneStart	Standard	19	0	0	1	n/a	CorrectRejection
52.815	1	TrialStart	Standard	20	0	0	1	n/a	CorrectRejection
53.815	0.2	ToneStart	Standard	20	0	0	1	n/a	CorrectRejection
55.065	2	TrialStart	Standard	21	0	0	1	n/a	CorrectRejection
57.065	0.2	ToneStart	Standard	21	0	0	1	n/a	CorrectRejection
58.315	2	TrialStart	Standard	22	0	0	1	n/a	CorrectRejection
60.315	0.2	ToneStart	Standard	22	0	0	1	n/a	CorrectRejection
61.565	1	TrialStart	Novel	23	0	0	1	n/a	CorrectRejection
62.565	0.2	ToneStart	Novel	23	0	0	1	n/a	CorrectRejection
63.814	2	TrialStart	Oddball	24	1	1	1	575	Hit
65.814	0.2	ToneStart	Oddball	24	1	1	1	575	Hit
67.064	2	TrialStart	Standard	25	0	0	1	n/a	CorrectRejection
69.064	0.2	ToneStart	Standard	25	0	0	1	n/a	CorrectRejection
70.314	2	TrialStart	Standard	26	0	0	1	n/a	CorrectRejection
72.313	0.2	ToneStart	Standard	26	0	0	1	n/a	CorrectRejection
73.563	1	TrialStart	Standard	27	0	0	1	n/a	CorrectRejection
74.563	0.2	ToneStart	Standard	27	0	0	1	n/a	CorrectRejection
75.83	2	TrialStart	Standard	28	0	0	1	n/a	CorrectRejection
77.829	0.2	ToneStart	Standard	28	0	0	1	n/a	CorrectRejection
79.079	2	TrialStart	Oddball	29	1	1	1	521	Hit
81.079	0.2	ToneStart	Oddball	29	1	1	1	521	Hit
82.33	1	TrialStart	Novel	30	0	0	1	n/a	CorrectRejection
83.329	0.2	ToneStart	Novel	30	0	0	1	n/a	CorrectRejection
84.579	1	TrialStart	Standard	31	0	0	1	n/a	CorrectRejection
85.579	0.2	ToneStart	Standard	31	0	0	1	n/a	CorrectRejection
86.829	2	TrialStart	Standard	32	0	0	1	n/a	CorrectRejection
88.828	0.2	ToneStart	Standard	32	0	0	1	n/a	CorrectRejection
90.078	1	TrialStart	Novel	33	0	0	1	n/a	CorrectRejection
91.078	0.2	ToneStart	Novel	33	0	0	1	n/a	CorrectRejection
92.328	2	TrialStart	Standard	34	0	0	1	n/a	CorrectRejection
94.328	0.2	ToneStart	Standard	34	0	0	1	n/a	CorrectRejection
95.578	2	TrialStart	Standard	35	0	0	1	n/a	CorrectRejection
97.577	0.2	ToneStart	Standard	35	0	0	1	n/a	CorrectRejection
98.827	1	TrialStart	Standard	36	0	0	1	n/a	CorrectRejection
99.827	0.2	ToneStart	Standard	36	0	0	1	n/a	CorrectRejection
101.077	1	TrialStart	Standard	37	0	0	1	n/a	CorrectRejection
102.078	0.2	ToneStart	Standard	37	0	0	1	n/a	CorrectRejection
103.327	2	TrialStart	Standard	38	0	0	1	n/a	CorrectRejection
105.327	0.2	ToneStart	Standard	38	0	0	1	n/a	CorrectRejection
106.576	2	TrialStart	Oddball	39	1	1	1	443	Hit
108.576	0.2	ToneStart	Oddball	39	1	1	1	443	Hit
109.826	2	TrialStart	Standard	40	0	0	1	n/a	CorrectRejection
111.826	0.2	ToneStart	Standard	40	0	0	1	n/a	CorrectRejection
113.076	2	TrialStart	Standard	41	0	0	1	n/a	CorrectRejection
115.075	0.2	ToneStart	Standard	41	0	0	1	n/a	CorrectRejection
116.325	1	TrialStart	Standard	42	0	0	1	n/a	CorrectRejection
117.325	0.2	ToneStart	Standard	42	0	0	1	n/a	CorrectRejection
118.575	1	TrialStart	Standard	43	0	0	1	n/a	CorrectRejection
119.576	0.2	ToneStart	Standard	43	0	0	1	n/a	CorrectRejection
120.825	1	TrialStart	Novel	44	0	0	1	n/a	CorrectRejection
121.825	0.2	ToneStart	Novel	44	0	0	1	n/a	CorrectRejection
123.075	1	TrialStart	Standard	45	0	0	1	n/a	CorrectRejection
124.075	0.2	ToneStart	Standard	45	0	0	1	n/a	CorrectRejection
125.325	2	TrialStart	Standard	46	0	0	1	n/a	CorrectRejection
127.324	0.2	ToneStart	Standard	46	0	0	1	n/a	CorrectRejection
128.574	2	TrialStart	Standard	47	0	0	1	n/a	CorrectRejection
130.574	0.2	ToneStart	Standard	47	0	0	1	n/a	CorrectRejection
131.824	1	TrialStart	Standard	48	0	0	1	n/a	CorrectRejection
132.824	0.2	ToneStart	Standard	48	0	0	1	n/a	CorrectRejection
134.073	2	TrialStart	Oddball	49	1	1	1	542	Hit
136.073	0.2	ToneStart	Oddball	49	1	1	1	542	Hit
137.323	2	TrialStart	Standard	50	0	0	1	n/a	CorrectRejection
139.323	0.2	ToneStart	Standard	50	0	0	1	n/a	CorrectRejection
140.573	2	TrialStart	Standard	51	0	0	1	n/a	CorrectRejection
142.573	0.2	ToneStart	Standard	51	0	0	1	n/a	CorrectRejection
143.823	2	TrialStart	Standard	52	0	0	1	n/a	CorrectRejection
145.822	0.2	ToneStart	Standard	52	0	0	1	n/a	CorrectRejection
147.072	2	TrialStart	Novel	53	0	0	1	n/a	CorrectRejection
149.072	0.2	ToneStart	Novel	53	0	0	1	n/a	CorrectRejection
150.322	2	TrialStart	Standard	54	0	0	1	n/a	CorrectRejection
152.321	0.2	ToneStart	Standard	54	0	0	1	n/a	CorrectRejection
153.571	1	TrialStart	Standard	55	0	0	1	n/a	CorrectRejection
154.571	0.2	ToneStart	Standard	55	0	0	1	n/a	CorrectRejection
155.821	1	TrialStart	Novel	56	0	0	1	n/a	CorrectRejection
156.822	0.2	ToneStart	Novel	56	0	0	1	n/a	CorrectRejection
158.071	2	TrialStart	Standard	57	0	0	1	n/a	CorrectRejection
160.071	0.2	ToneStart	Standard	57	0	0	1	n/a	CorrectRejection
161.321	1	TrialStart	Standard	58	0	0	1	n/a	CorrectRejection
162.321	0.2	ToneStart	Standard	58	0	0	1	n/a	CorrectRejection
163.57	1	TrialStart	Standard	59	0	0	1	n/a	CorrectRejection
164.571	0.2	ToneStart	Standard	59	0	0	1	n/a	CorrectRejection
165.837	1	TrialStart	Oddball	60	1	1	1	513	Hit
166.841	0.2	ToneStart	Oddball	60	1	1	1	513	Hit
168.103	1	TrialStart	Standard	61	0	0	1	n/a	CorrectRejection
169.104	0.2	ToneStart	Standard	61	0	0	1	n/a	CorrectRejection
170.353	2	TrialStart	Standard	62	0	0	1	n/a	CorrectRejection
172.354	0.2	ToneStart	Standard	62	0	0	1	n/a	CorrectRejection
173.603	2	TrialStart	Standard	63	0	0	1	n/a	CorrectRejection
175.602	0.2	ToneStart	Standard	63	0	0	1	n/a	CorrectRejection
176.852	1	TrialStart	Standard	64	0	0	1	n/a	CorrectRejection
177.853	0.2	ToneStart	Standard	64	0	0	1	n/a	CorrectRejection
179.102	1	TrialStart	Novel	65	0	0	1	n/a	CorrectRejection
180.102	0.2	ToneStart	Novel	65	0	0	1	n/a	CorrectRejection
181.352	2	TrialStart	Standard	66	0	0	1	n/a	CorrectRejection
183.351	0.2	ToneStart	Standard	66	0	0	1	n/a	CorrectRejection
184.601	1	TrialStart	Standard	67	0	0	1	n/a	CorrectRejection
185.601	0.2	ToneStart	Standard	67	0	0	1	n/a	CorrectRejection
186.851	2	TrialStart	Oddball	68	1	1	1	569	Hit
188.851	0.2	ToneStart	Oddball	68	1	1	1	569	Hit
190.101	1	TrialStart	Standard	69	0	0	1	n/a	CorrectRejection
191.101	0.2	ToneStart	Standard	69	0	0	1	n/a	CorrectRejection
192.351	1	TrialStart	Standard	70	0	0	1	n/a	CorrectRejection
193.351	0.2	ToneStart	Standard	70	0	0	1	n/a	CorrectRejection
194.601	2	TrialStart	Standard	71	0	0	1	n/a	CorrectRejection
196.6	0.2	ToneStart	Standard	71	0	0	1	n/a	CorrectRejection
197.85	2	TrialStart	Standard	72	0	0	1	n/a	CorrectRejection
199.851	0.2	ToneStart	Standard	72	0	0	1	n/a	CorrectRejection
201.1	1	TrialStart	Standard	73	0	0	1	n/a	CorrectRejection
202.1	0.2	ToneStart	Standard	73	0	0	1	n/a	CorrectRejection
203.349	2	TrialStart	Standard	74	0	0	1	n/a	CorrectRejection
205.349	0.2	ToneStart	Standard	74	0	0	1	n/a	CorrectRejection
206.599	2	TrialStart	Oddball	75	1	1	1	456	Hit
208.599	0.2	ToneStart	Oddball	75	1	1	1	456	Hit
209.849	2	TrialStart	Standard	76	0	0	1	n/a	CorrectRejection
211.848	0.2	ToneStart	Standard	76	0	0	1	n/a	CorrectRejection
213.098	1	TrialStart	Standard	77	0	0	1	n/a	CorrectRejection
214.098	0.2	ToneStart	Standard	77	0	0	1	n/a	CorrectRejection
215.348	2	TrialStart	Standard	78	0	0	1	n/a	CorrectRejection
217.348	0.2	ToneStart	Standard	78	0	0	1	n/a	CorrectRejection
218.598	1	TrialStart	Novel	79	0	0	1	n/a	CorrectRejection
219.598	0.2	ToneStart	Novel	79	0	0	1	n/a	CorrectRejection
220.848	2	TrialStart	Standard	80	0	0	1	n/a	CorrectRejection
222.847	0.2	ToneStart	Standard	80	0	0	1	n/a	CorrectRejection
224.097	2	TrialStart	Standard	81	0	0	1	n/a	CorrectRejection
226.097	0.2	ToneStart	Standard	81	0	0	1	n/a	CorrectRejection
227.347	2	TrialStart	Oddball	82	1	1	1	570	Hit
229.347	0.2	ToneStart	Oddball	82	1	1	1	570	Hit
230.596	2	TrialStart	Standard	83	0	0	1	n/a	CorrectRejection
232.596	0.2	ToneStart	Standard	83	0	0	1	n/a	CorrectRejection
233.846	2	TrialStart	Standard	84	0	0	1	n/a	CorrectRejection
235.846	0.2	ToneStart	Standard	84	0	0	1	n/a	CorrectRejection
237.096	2	TrialStart	Novel	85	0	0	1	n/a	CorrectRejection
239.096	0.2	ToneStart	Novel	85	0	0	1	n/a	CorrectRejection
240.345	1	TrialStart	Standard	86	0	0	1	n/a	CorrectRejection
241.345	0.2	ToneStart	Standard	86	0	0	1	n/a	CorrectRejection
242.595	2	TrialStart	Standard	87	0	0	1	n/a	CorrectRejection
244.595	0.2	ToneStart	Standard	87	0	0	1	n/a	CorrectRejection
245.862	1	TrialStart	Standard	88	0	0	1	n/a	CorrectRejection
246.878	0.2	ToneStart	Standard	88	0	0	1	n/a	CorrectRejection
248.145	1	TrialStart	Standard	89	0	0	1	n/a	CorrectRejection
249.145	0.2	ToneStart	Standard	89	0	0	1	n/a	CorrectRejection
250.411	2	TrialStart	Standard	90	0	0	1	n/a	CorrectRejection
252.411	0.2	ToneStart	Standard	90	0	0	1	n/a	CorrectRejection
253.677	1	TrialStart	Standard	91	0	0	1	n/a	CorrectRejection
254.678	0.2	ToneStart	Standard	91	0	0	1	n/a	CorrectRejection
255.944	1	TrialStart	Standard	92	0	0	1	n/a	CorrectRejection
256.945	0.2	ToneStart	Standard	92	0	0	1	n/a	CorrectRejection
258.21	2	TrialStart	Standard	93	0	0	1	n/a	CorrectRejection
260.21	0.2	ToneStart	Standard	93	0	0	1	n/a	CorrectRejection
261.477	1	TrialStart	Novel	94	0	0	1	n/a	CorrectRejection
262.476	0.2	ToneStart	Novel	94	0	0	1	n/a	CorrectRejection
263.743	2	TrialStart	Oddball	95	1	1	1	561	Hit
265.743	0.2	ToneStart	Oddball	95	1	1	1	561	Hit
267.01	2	TrialStart	Standard	96	0	0	1	n/a	CorrectRejection
269.009	0.2	ToneStart	Standard	96	0	0	1	n/a	CorrectRejection
270.276	1	TrialStart	Standard	97	0	0	1	n/a	CorrectRejection
271.275	0.2	ToneStart	Standard	97	0	0	1	n/a	CorrectRejection
272.542	2	TrialStart	Standard	98	0	0	1	n/a	CorrectRejection
274.542	0.2	ToneStart	Standard	98	0	0	1	n/a	CorrectRejection
275.808	1	TrialStart	Standard	99	0	0	1	n/a	CorrectRejection
276.808	0.2	ToneStart	Standard	99	0	0	1	n/a	CorrectRejection
278.075	1	TrialStart	Standard	100	0	0	1	n/a	CorrectRejection
279.075	0.2	ToneStart	Standard	100	0	0	1	n/a	CorrectRejection
280.341	1	TrialStart	Standard	101	0	0	1	n/a	CorrectRejection
281.341	0.2	ToneStart	Standard	101	0	0	1	n/a	CorrectRejection
282.608	1	TrialStart	Standard	102	0	0	1	n/a	CorrectRejection
283.607	0.2	ToneStart	Standard	102	0	0	1	n/a	CorrectRejection
284.874	1	TrialStart	Standard	103	0	0	1	n/a	CorrectRejection
285.874	0.2	ToneStart	Standard	103	0	0	1	n/a	CorrectRejection
287.14	1	TrialStart	Standard	104	0	0	1	n/a	CorrectRejection
288.14	0.2	ToneStart	Standard	104	0	0	1	n/a	CorrectRejection
289.407	1	TrialStart	Oddball	105	1	1	1	497	Hit
290.407	0.2	ToneStart	Oddball	105	1	1	1	497	Hit
291.674	2	TrialStart	Standard	106	0	0	1	n/a	CorrectRejection
293.673	0.2	ToneStart	Standard	106	0	0	1	n/a	CorrectRejection
294.94	1	TrialStart	Standard	107	0	0	1	n/a	CorrectRejection
295.94	0.2	ToneStart	Standard	107	0	0	1	n/a	CorrectRejection
297.206	1	TrialStart	Standard	108	0	0	1	n/a	CorrectRejection
298.207	0.2	ToneStart	Standard	108	0	0	1	n/a	CorrectRejection
299.472	1	TrialStart	Standard	109	0	0	1	n/a	CorrectRejection
300.472	0.2	ToneStart	Standard	109	0	0	1	n/a	CorrectRejection
301.739	2	TrialStart	Standard	110	0	0	1	n/a	CorrectRejection
303.739	0.2	ToneStart	Standard	110	0	0	1	n/a	CorrectRejection
305.005	1	TrialStart	Oddball	111	1	1	1	612	Hit
306.005	0.2	ToneStart	Oddball	111	1	1	1	612	Hit
307.272	1	TrialStart	Standard	112	0	0	1	n/a	CorrectRejection
308.272	0.2	ToneStart	Standard	112	0	0	1	n/a	CorrectRejection
309.538	2	TrialStart	Standard	113	0	0	1	n/a	CorrectRejection
311.538	0.2	ToneStart	Standard	113	0	0	1	n/a	CorrectRejection
312.804	2	TrialStart	Standard	114	0	0	1	n/a	CorrectRejection
314.804	0.2	ToneStart	Standard	114	0	0	1	n/a	CorrectRejection
316.071	2	TrialStart	Standard	115	0	0	1	n/a	CorrectRejection
318.07	0.2	ToneStart	Standard	115	0	0	1	n/a	CorrectRejection
319.337	1	TrialStart	Standard	116	0	0	1	n/a	CorrectRejection
320.337	0.2	ToneStart	Standard	116	0	0	1	n/a	CorrectRejection
321.603	2	TrialStart	Standard	117	0	0	1	n/a	CorrectRejection
323.603	0.2	ToneStart	Standard	117	0	0	1	n/a	CorrectRejection
324.87	1	TrialStart	Standard	118	0	0	1	n/a	CorrectRejection
325.87	0.2	ToneStart	Standard	118	0	0	1	n/a	CorrectRejection
327.137	1	TrialStart	Standard	119	0	0	1	n/a	CorrectRejection
328.136	0.2	ToneStart	Standard	119	0	0	1	n/a	CorrectRejection
329.403	1	TrialStart	Standard	120	0	0	1	n/a	CorrectRejection
330.402	0.2	ToneStart	Standard	120	0	0	1	n/a	CorrectRejection
