onset	duration	TrialEvent	ToneLabel	Trial	CRESP	RESP	ACC	RT	Code
0.038	2	TrialStart	Standard	1	0	0	1	n/a	CorrectRejection
2.038	0.2	ToneStart	Standard	1	0	0	1	n/a	CorrectRejection
3.304	2	TrialStart	Standard	2	0	0	1	n/a	CorrectRejection
5.304	0.2	ToneStart	Standard	2	0	0	1	n/a	CorrectRejection
6.57	2	TrialStart	Standard	3	0	0	1	n/a	CorrectRejection
8.57	0.2	ToneStart	Standard	3	0	0	1	n/a	CorrectRejection
9.837	2	TrialStart	Novel	4	0	0	1	n/a	CorrectRejection
11.836	0.2	ToneStart	Novel	4	0	0	1	n/a	CorrectRejection
13.12	1	TrialStart	Standard	5	0	0	1	n/a	CorrectRejection
14.12	0.2	ToneStart	Standard	5	0	0	1	n/a	CorrectRejection
15.386	1	TrialStart	Standard	6	0	0	1	n/a	CorrectRejection
16.386	0.2	ToneStart	Standard	6	0	0	1	n/a	CorrectRejection
17.669	2	TrialStart	Standard	7	0	0	1	n/a	CorrectRejection
19.669	0.2	ToneStart	Standard	7	0	0	1	n/a	CorrectRejection
20.936	1	TrialStart	Standard	8	0	0	1	n/a	CorrectRejection
21.936	0.2	ToneStart	Standard	8	0	0	1	n/a	CorrectRejection
23.219	1	TrialStart	Standard	9	0	0	1	n/a	CorrectRejection
24.219	0.2	ToneStart	Standard	9	0	0	1	n/a	CorrectRejection
25.485	1	TrialStart	Standard	10	0	0	1	n/a	CorrectRejection
26.486	0.2	ToneStart	Standard	10	0	0	1	n/a	CorrectRejection
27.752	1	TrialStart	Oddball	11	1	1	1	492	Hit
28.752	0.2	ToneStart	Oddball	11	1	1	1	492	Hit
30.018	1	TrialStart	Standard	12	0	0	1	n/a	CorrectRejection
31.018	0.2	ToneStart	Standard	12	0	0	1	n/a	CorrectRejection
32.284	2	TrialStart	Standard	13	0	0	1	n/a	CorrectRejection
34.284	0.2	ToneStart	Standard	13	0	0	1	n/a	CorrectRejection
35.551	1	TrialStart	Standard	14	0	0	1	n/a	CorrectRejection
36.551	0.2	ToneStart	Standard	14	0	0	1	n/a	CorrectRejection
37.817	2	TrialStart	Standard	15	0	0	1	n/a	CorrectRejection
39.817	0.2	ToneStart	Standard	15	0	0	1	n/a	CorrectRejection
41.084	2	TrialStart	Standard	16	0	0	1	n/a	CorrectRejection
43.084	0.2	ToneStart	Standard	16	0	0	1	n/a	CorrectRejection
44.35	1	TrialStart	Novel	17	0	0	1	n/a	CorrectRejection
45.351	0.2	ToneStart	Novel	17	0	0	1	n/a	CorrectRejection
46.617	2	TrialStart	Standard	18	0	0	1	n/a	CorrectRejection
48.616	0.2	ToneStart	Standard	18	0	0	1	n/a	CorrectRejection
49.883	2	TrialStart	Standard	19	0	0	1	n/a	CorrectRejection
51.883	0.2	ToneStart	Standard	19	0	0	1	n/a	CorrectRejection
53.149	1	TrialStart	Standard	20	0	0	1	n/a	CorrectRejection
54.149	0.2	ToneStart	Standard	20	0	0	1	n/a	CorrectRejection
55.416	2	TrialStart	Standard	21	0	0	1	n/a	CorrectRejection
57.415	0.2	ToneStart	Standard	21	0	0	1	n/a	CorrectRejection
58.682	2	TrialStart	Standard	22	0	0	1	n/a	CorrectRejection
60.682	0.2	ToneStart	Standard	22	0	0	1	n/a	CorrectRejection
61.948	1	TrialStart	Novel	23	0	0	1	n/a	CorrectRejection
62.948	0.2	ToneStart	Novel	23	0	0	1	n/a	CorrectRejection
64.215	2	TrialStart	Oddball	24	1	1	1	531	Hit
66.215	0.2	ToneStart	Oddball	24	1	1	1	531	Hit
67.481	2	TrialStart	Standard	25	0	0	1	n/a	CorrectRejection
69.481	0.2	ToneStart	Standard	25	0	0	1	n/a	CorrectRejection
70.748	2	TrialStart	Standard	26	0	0	1	n/a	CorrectRejection
72.747	0.2	ToneStart	Standard	26	0	0	1	n/a	CorrectRejection
74.014	1	TrialStart	Standard	27	0	0	1	n/a	CorrectRejection
75.014	0.2	ToneStart	Standard	27	0	0	1	n/a	CorrectRejection
76.28	2	TrialStart	Standard	28	0	0	1	n/a	CorrectRejection
78.28	0.2	ToneStart	Standard	28	0	0	1	n/a	CorrectRejection
79.53	2	TrialStart	Oddball	29	1	1	1	549	Hit
81.53	0.2	ToneStart	Oddball	29	1	1	1	549	Hit
82.797	1	TrialStart	Novel	30	0	0	1	n/a	CorrectRejection
83.796	0.2	ToneStart	Novel	30	0	0	1	n/a	CorrectRejection
85.046	1	TrialStart	Standard	31	0	0	1	n/a	CorrectRejection
86.046	0.2	ToneStart	Standard	31	0	0	1	n/a	CorrectRejection
87.313	2	TrialStart	Standard	32	0	0	1	n/a	CorrectRejection
89.313	0.2	ToneStart	Standard	32	0	0	1	n/a	CorrectRejection
90.562	1	TrialStart	Novel	33	0	0	1	n/a	CorrectRejection
91.562	0.2	ToneStart	Novel	33	0	0	1	n/a	CorrectRejection
92.812	2	TrialStart	Standard	34	0	0	1	n/a	CorrectRejection
94.812	0.2	ToneStart	Standard	34	0	0	1	n/a	CorrectRejection
96.062	2	TrialStart	Standard	35	0	0	1	n/a	CorrectRejection
98.062	0.2	ToneStart	Standard	35	0	0	1	n/a	CorrectRejection
99.312	1	TrialStart	Standard	36	0	0	1	n/a	CorrectRejection
100.312	0.2	ToneStart	Standard	36	0	0	1	n/a	CorrectRejection
101.561	1	TrialStart	Standard	37	0	0	1	n/a	CorrectRejection
102.561	0.2	ToneStart	Standard	37	0	0	1	n/a	CorrectRejection
103.811	2	TrialStart	Standard	38	0	0	1	n/a	CorrectRejection
105.811	0.2	ToneStart	Standard	38	0	0	1	n/a	CorrectRejection
107.061	2	TrialStart	Oddball	39	1	1	1	488	Hit
109.061	0.2	ToneStart	Oddball	39	1	1	1	488	Hit
110.311	2	TrialStart	Standard	40	0	0	1	n/a	CorrectRejection
112.31	0.2	ToneStart	Standard	40	0	0	1	n/a	CorrectRejection
113.56	2	TrialStart	Standard	41	0	0	1	n/a	CorrectRejection
115.56	0.2	ToneStart	Standard	41	0	0	1	n/a	CorrectRejection
116.827	1	TrialStart	Standard	42	0	0	1	n/a	CorrectRejection
117.827	0.2	ToneStart	Standard	42	0	0	1	n/a	CorrectRejection
119.093	1	TrialStart	Standard	43	0	0	1	n/a	CorrectRejection
120.093	0.2	ToneStart	Standard	43	0	0	1	n/a	CorrectRejection
121.36	1	TrialStart	Novel	44	0	0	1	n/a	CorrectRejection
122.376	0.2	ToneStart	Novel	44	0	0	1	n/a	CorrectRejection
123.643	1	TrialStart	Standard	45	0	0	1	n/a	CorrectRejection
124.643	0.2	ToneStart	Standard	45	0	0	1	n/a	CorrectRejection
125.909	2	TrialStart	Standard	46	0	0	1	n/a	CorrectRejection
127.909	0.2	ToneStart	Standard	46	0	0	1	n/a	CorrectRejection
129.176	2	TrialStart	Standard	47	0	0	1	n/a	CorrectRejection
131.175	0.2	ToneStart	Standard	47	0	0	1	n/a	CorrectRejection
132.442	1	TrialStart	Standard	48	0	0	1	n/a	CorrectRejection
133.443	0.2	ToneStart	Standard	48	0	0	1	n/a	CorrectRejection
134.708	2	TrialStart	Oddball	49	1	1	1	501	Hit
136.708	0.2	ToneStart	Oddball	49	1	1	1	501	Hit
137.975	2	TrialStart	Standard	50	0	0	1	n/a	CorrectRejection
139.975	0.2	ToneStart	Standard	50	0	0	1	n/a	CorrectRejection
141.241	2	TrialStart	Standard	51	0	0	1	n/a	CorrectRejection
143.241	0.2	ToneStart	Standard	51	0	0	1	n/a	CorrectRejection
144.507	2	TrialStart	Standard	52	0	0	1	n/a	CorrectRejection
146.507	0.2	ToneStart	Standard	52	0	0	1	n/a	CorrectRejection
147.774	2	TrialStart	Novel	53	0	0	1	n/a	CorrectRejection
149.774	0.2	ToneStart	Novel	53	0	0	1	n/a	CorrectRejection
151.04	2	TrialStart	Standard	54	0	0	1	n/a	CorrectRejection
153.04	0.2	ToneStart	Standard	54	0	0	1	n/a	CorrectRejection
154.307	1	TrialStart	Standard	55	0	0	1	n/a	CorrectRejection
155.306	0.2	ToneStart	Standard	55	0	0	1	n/a	CorrectRejection
156.573	1	TrialStart	Novel	56	0	0	1	n/a	CorrectRejection
157.573	0.2	ToneStart	Novel	56	0	0	1	n/a	CorrectRejection
158.839	2	TrialStart	Standard	57	0	0	1	n/a	CorrectRejection
160.839	0.2	ToneStart	Standard	57	0	0	1	n/a	CorrectRejection
162.106	1	TrialStart	Standard	58	0	0	1	n/a	CorrectRejection
163.106	0.2	ToneStart	Standard	58	0	0	1	n/a	CorrectRejection
164.372	1	TrialStart	Standard	59	0	0	1	n/a	CorrectRejection
165.372	0.2	ToneStart	Standard	59	0	0	1	n/a	CorrectRejection
166.639	1	TrialStart	Oddball	60	1	1	1	428	Hit
167.639	0.2	ToneStart	Oddball	60	1	1	1	428	Hit
168.905	1	TrialStart	Standard	61	0	0	1	n/a	CorrectRejection
169.905	0.2	ToneStart	Standard	61	0	0	1	n/a	CorrectRejection
171.172	2	TrialStart	Standard	62	0	0	1	n/a	CorrectRejection
173.171	0.2	ToneStart	Standard	62	0	0	1	n/a	CorrectRejection
174.438	2	TrialStart	Standard	63	0	0	1	n/a	CorrectRejection
176.438	0.2	ToneStart	Standard	63	0	0	1	n/a	CorrectRejection
177.704	1	TrialStart	Standard	64	0	0	1	n/a	CorrectRejection
178.704	0.2	ToneStart	Standard	64	0	0	1	n/a	CorrectRejection
179.971	1	TrialStart	Novel	65	0	0	1	n/a	CorrectRejection
180.971	0.2	ToneStart	Novel	65	0	0	1	n/a	CorrectRejection
182.237	2	TrialStart	Standard	66	0	0	1	n/a	CorrectRejection
184.238	0.2	ToneStart	Standard	66	0	0	1	n/a	CorrectRejection
185.504	1	TrialStart	Standard	67	0	0	1	n/a	CorrectRejection
186.503	0.2	ToneStart	Standard	67	0	0	1	n/a	CorrectRejection
187.787	2	TrialStart	Oddball	68	1	1	1	567	Hit
189.787	0.2	ToneStart	Oddball	68	1	1	1	567	Hit
191.053	1	TrialStart	Standard	69	0	0	1	n/a	CorrectRejection
192.053	0.2	ToneStart	Standard	69	0	0	1	n/a	CorrectRejection
193.319	1	TrialStart	Standard	70	0	0	1	n/a	CorrectRejection
194.319	0.2	ToneStart	Standard	70	0	0	1	n/a	CorrectRejection
195.586	2	TrialStart	Standard	71	0	0	1	n/a	CorrectRejection
197.586	0.2	ToneStart	Standard	71	0	0	1	n/a	CorrectRejection
198.852	2	TrialStart	Standard	72	0	0	1	n/a	CorrectRejection
200.852	0.2	ToneStart	Standard	72	0	0	1	n/a	CorrectRejection
202.119	1	TrialStart	Standard	73	0	0	1	n/a	CorrectRejection
203.119	0.2	ToneStart	Standard	73	0	0	1	n/a	CorrectRejection
204.385	2	TrialStart	Standard	74	0	0	1	n/a	CorrectRejection
206.385	0.2	ToneStart	Standard	74	0	0	1	n/a	CorrectRejection
207.651	2	TrialStart	Oddball	75	1	1	1	572	Hit
209.651	0.2	ToneStart	Oddball	75	1	1	1	572	Hit
210.918	2	TrialStart	Standard	76	0	0	1	n/a	CorrectRejection
212.918	0.2	ToneStart	Standard	76	0	0	1	n/a	CorrectRejection
214.184	1	TrialStart	Standard	77	0	0	1	n/a	CorrectRejection
215.185	0.2	ToneStart	Standard	77	0	0	1	n/a	CorrectRejection
216.451	2	TrialStart	Standard	78	0	0	1	n/a	CorrectRejection
218.45	0.2	ToneStart	Standard	78	0	0	1	n/a	CorrectRejection
219.717	1	TrialStart	Novel	79	0	0	1	n/a	CorrectRejection
220.717	0.2	ToneStart	Novel	79	0	0	1	n/a	CorrectRejection
221.984	2	TrialStart	Standard	80	0	0	1	n/a	CorrectRejection
223.983	0.2	ToneStart	Standard	80	0	0	1	n/a	CorrectRejection
225.25	2	TrialStart	Standard	81	0	0	1	n/a	CorrectRejection
227.25	0.2	ToneStart	Standard	81	0	0	1	n/a	CorrectRejection
228.517	2	TrialStart	Oddball	82	1	1	1	663	Hit
230.516	0.2	ToneStart	Oddball	82	1	1	1	663	Hit
231.783	2	TrialStart	Standard	83	0	0	1	n/a	CorrectRejection
233.782	0.2	ToneStart	Standard	83	0	0	1	n/a	CorrectRejection
235.049	2	TrialStart	Standard	84	0	0	1	n/a	CorrectRejection
237.049	0.2	ToneStart	Standard	84	0	0	1	n/a	CorrectRejection
238.315	2	TrialStart	Novel	85	0	0	1	n/a	CorrectRejection
240.315	0.2	ToneStart	Novel	85	0	0	1	n/a	CorrectRejection
241.582	1	TrialStart	Standard	86	0	0	1	n/a	CorrectRejection
242.582	0.2	ToneStart	Standard	86	0	0	1	n/a	CorrectRejection
243.848	2	TrialStart	Standard	87	0	0	1	n/a	CorrectRejection
245.848	0.2	ToneStart	Standard	87	0	0	1	n/a	CorrectRejection
247.115	1	TrialStart	Standard	88	0	0	1	n/a	CorrectRejection
248.114	0.2	ToneStart	Standard	88	0	0	1	n/a	CorrectRejection
249.381	1	TrialStart	Standard	89	0	0	1	n/a	CorrectRejection
250.381	0.2	ToneStart	Standard	89	0	0	1	n/a	CorrectRejection
251.647	2	TrialStart	Standard	90	0	0	1	n/a	CorrectRejection
253.647	0.2	ToneStart	Standard	90	0	0	1	n/a	CorrectRejection
254.914	1	TrialStart	Standard	91	0	0	1	n/a	CorrectRejection
255.914	0.2	ToneStart	Standard	91	0	0	1	n/a	CorrectRejection
257.18	1	TrialStart	Standard	92	0	0	1	n/a	CorrectRejection
258.18	0.2	ToneStart	Standard	92	0	0	1	n/a	CorrectRejection
259.447	2	TrialStart	Standard	93	0	0	1	n/a	CorrectRejection
261.446	0.2	ToneStart	Standard	93	0	0	1	n/a	CorrectRejection
262.713	1	TrialStart	Novel	94	0	0	1	n/a	CorrectRejection
263.713	0.2	ToneStart	Novel	94	0	0	1	n/a	CorrectRejection
264.963	2	TrialStart	Oddball	95	1	1	1	522	Hit
266.963	0.2	ToneStart	Oddball	95	1	1	1	522	Hit
268.229	2	TrialStart	Standard	96	0	0	1	n/a	CorrectRejection
270.229	0.2	ToneStart	Standard	96	0	0	1	n/a	CorrectRejection
271.496	1	TrialStart	Standard	97	0	0	1	n/a	CorrectRejection
272.495	0.2	ToneStart	Standard	97	0	0	1	n/a	CorrectRejection
273.763	2	TrialStart	Standard	98	0	0	1	n/a	CorrectRejection
275.762	0.2	ToneStart	Standard	98	0	0	1	n/a	CorrectRejection
277.028	1	TrialStart	Standard	99	0	0	1	n/a	CorrectRejection
278.028	0.2	ToneStart	Standard	99	0	0	1	n/a	CorrectRejection
279.295	1	TrialStart	Standard	100	0	0	1	n/a	CorrectRejection
280.296	0.2	ToneStart	Standard	100	0	0	1	n/a	CorrectRejection
281.561	1	TrialStart	Standard	101	0	0	1	n/a	CorrectRejection
282.561	0.2	ToneStart	Standard	101	0	0	1	n/a	CorrectRejection
283.828	1	TrialStart	Standard	102	0	0	1	n/a	CorrectRejection
284.828	0.2	ToneStart	Standard	102	0	0	1	n/a	CorrectRejection
286.094	1	TrialStart	Standard	103	0	0	1	n/a	CorrectRejection
287.094	0.2	ToneStart	Standard	103	0	0	1	n/a	CorrectRejection
288.361	1	TrialStart	Standard	104	0	0	1	n/a	CorrectRejection
289.361	0.2	ToneStart	Standard	104	0	0	1	n/a	CorrectRejection
290.627	1	TrialStart	Oddball	105	1	1	1	395	Hit
291.627	0.2	ToneStart	Oddball	105	1	1	1	395	Hit
292.894	2	TrialStart	Standard	106	0	0	1	n/a	CorrectRejection
294.893	0.2	ToneStart	Standard	106	0	0	1	n/a	CorrectRejection
296.16	1	TrialStart	Standard	107	0	0	1	n/a	CorrectRejection
297.161	0.2	ToneStart	Standard	107	0	0	1	n/a	CorrectRejection
298.426	1	TrialStart	Standard	108	0	0	1	n/a	CorrectRejection
299.426	0.2	ToneStart	Standard	108	0	0	1	n/a	CorrectRejection
300.693	1	TrialStart	Standard	109	0	0	1	n/a	CorrectRejection
301.694	0.2	ToneStart	Standard	109	0	0	1	n/a	CorrectRejection
302.959	2	TrialStart	Standard	110	0	0	1	n/a	CorrectRejection
304.959	0.2	ToneStart	Standard	110	0	0	1	n/a	CorrectRejection
306.226	1	TrialStart	Oddball	111	1	1	1	455	Hit
307.226	0.2	ToneStart	Oddball	111	1	1	1	455	Hit
308.492	1	TrialStart	Standard	112	0	0	1	n/a	CorrectRejection
309.492	0.2	ToneStart	Standard	112	0	0	1	n/a	CorrectRejection
310.759	2	TrialStart	Standard	113	0	0	1	n/a	CorrectRejection
312.758	0.2	ToneStart	Standard	113	0	0	1	n/a	CorrectRejection
314.025	2	TrialStart	Standard	114	0	0	1	n/a	CorrectRejection
316.025	0.2	ToneStart	Standard	114	0	0	1	n/a	CorrectRejection
317.291	2	TrialStart	Standard	115	0	0	1	n/a	CorrectRejection
319.291	0.2	ToneStart	Standard	115	0	0	1	n/a	CorrectRejection
320.558	1	TrialStart	Standard	116	0	0	1	n/a	CorrectRejection
321.558	0.2	ToneStart	Standard	116	0	0	1	n/a	CorrectRejection
322.824	2	TrialStart	Standard	117	0	0	1	n/a	CorrectRejection
324.824	0.2	ToneStart	Standard	117	0	0	1	n/a	CorrectRejection
326.092	1	TrialStart	Standard	118	0	0	1	n/a	CorrectRejection
327.09	0.2	ToneStart	Standard	118	0	0	1	n/a	CorrectRejection
328.357	1	TrialStart	Standard	119	0	0	1	n/a	CorrectRejection
329.357	0.2	ToneStart	Standard	119	0	0	1	n/a	CorrectRejection
330.623	1	TrialStart	Standard	120	0	0	1	n/a	CorrectRejection
331.623	0.2	ToneStart	Standard	120	0	0	1	n/a	CorrectRejection
