onset	duration	TrialEvent	ToneLabel	Trial	CRESP	RESP	ACC	RT	Code
0.032	2	TrialStart	Standard	1	0	0	1	n/a	CorrectRejection
2.032	0.2	ToneStart	Standard	1	0	0	1	n/a	CorrectRejection
3.298	2	TrialStart	Standard	2	0	0	1	n/a	CorrectRejection
5.298	0.2	ToneStart	Standard	2	0	0	1	n/a	CorrectRejection
6.564	2	TrialStart	Standard	3	0	0	1	n/a	CorrectRejection
8.564	0.2	ToneStart	Standard	3	0	0	1	n/a	CorrectRejection
9.831	2	TrialStart	Novel	4	0	0	1	n/a	CorrectRejection
11.831	0.2	ToneStart	Novel	4	0	0	1	n/a	CorrectRejection
13.097	1	TrialStart	Standard	5	0	0	1	n/a	CorrectRejection
14.097	0.2	ToneStart	Standard	5	0	0	1	n/a	CorrectRejection
15.364	1	TrialStart	Standard	6	0	0	1	n/a	CorrectRejection
16.363	0.2	ToneStart	Standard	6	0	0	1	n/a	CorrectRejection
17.63	2	TrialStart	Standard	7	0	0	1	n/a	CorrectRejection
19.63	0.2	ToneStart	Standard	7	0	0	1	n/a	CorrectRejection
20.896	1	TrialStart	Standard	8	0	0	1	n/a	CorrectRejection
21.896	0.2	ToneStart	Standard	8	0	0	1	n/a	CorrectRejection
23.163	1	TrialStart	Standard	9	0	0	1	n/a	CorrectRejection
24.163	0.2	ToneStart	Standard	9	0	0	1	n/a	CorrectRejection
25.429	1	TrialStart	Standard	10	0	0	1	n/a	CorrectRejection
26.429	0.2	ToneStart	Standard	10	0	0	1	n/a	CorrectRejection
27.696	1	TrialStart	Oddball	11	1	1	1	557	Hit
28.696	0.2	ToneStart	Oddball	11	1	1	1	557	Hit
29.945	1	TrialStart	Standard	12	0	0	1	n/a	CorrectRejection
30.945	0.2	ToneStart	Standard	12	0	0	1	n/a	CorrectRejection
32.212	2	TrialStart	Standard	13	0	0	1	n/a	CorrectRejection
34.212	0.2	ToneStart	Standard	13	0	0	1	n/a	CorrectRejection
35.478	1	TrialStart	Standard	14	0	0	1	n/a	CorrectRejection
36.478	0.2	ToneStart	Standard	14	0	0	1	n/a	CorrectRejection
37.745	2	TrialStart	Standard	15	0	0	1	n/a	CorrectRejection
39.744	0.2	ToneStart	Standard	15	0	0	1	n/a	CorrectRejection
40.994	2	TrialStart	Standard	16	0	0	1	n/a	CorrectRejection
42.994	0.2	ToneStart	Standard	16	0	0	1	n/a	CorrectRejection
44.261	1	TrialStart	Novel	17	0	0	1	n/a	CorrectRejection
45.261	0.2	ToneStart	Novel	17	0	0	1	n/a	CorrectRejection
46.527	2	TrialStart	Standard	18	0	0	1	n/a	CorrectRejection
48.527	0.2	ToneStart	Standard	18	0	0	1	n/a	CorrectRejection
49.793	2	TrialStart	Standard	19	0	0	1	n/a	CorrectRejection
51.793	0.2	ToneStart	Standard	19	0	0	1	n/a	CorrectRejection
53.06	1	TrialStart	Standard	20	0	0	1	n/a	CorrectRejection
54.06	0.2	ToneStart	Standard	20	0	0	1	n/a	CorrectRejection
55.326	2	TrialStart	Standard	21	0	0	1	n/a	CorrectRejection
57.326	0.2	ToneStart	Standard	21	0	0	1	n/a	CorrectRejection
58.576	2	TrialStart	Standard	22	0	0	1	n/a	CorrectRejection
60.576	0.2	ToneStart	Standard	22	0	0	1	n/a	CorrectRejection
61.842	1	TrialStart	Novel	23	0	0	1	n/a	CorrectRejection
62.842	0.2	ToneStart	Novel	23	0	0	1	n/a	CorrectRejection
64.109	2	TrialStart	Oddball	24	1	1	1	655	Hit
66.109	0.2	ToneStart	Oddball	24	1	1	1	655	Hit
67.375	2	TrialStart	Standard	25	0	0	1	n/a	CorrectRejection
69.375	0.2	ToneStart	Standard	25	0	0	1	n/a	CorrectRejection
70.641	2	TrialStart	Standard	26	0	0	1	n/a	CorrectRejection
72.641	0.2	ToneStart	Standard	26	0	0	1	n/a	CorrectRejection
73.908	1	TrialStart	Standard	27	0	0	1	n/a	CorrectRejection
74.908	0.2	ToneStart	Standard	27	0	0	1	n/a	CorrectRejection
76.174	2	TrialStart	Standard	28	0	0	1	n/a	CorrectRejection
78.174	0.2	ToneStart	Standard	28	0	0	1	n/a	CorrectRejection
79.441	2	TrialStart	Oddball	29	1	1	1	685	Hit
81.44	0.2	ToneStart	Oddball	29	1	1	1	685	Hit
82.707	1	TrialStart	Novel	30	0	0	1	n/a	CorrectRejection
83.707	0.2	ToneStart	Novel	30	0	0	1	n/a	CorrectRejection
84.973	1	TrialStart	Standard	31	0	0	1	n/a	CorrectRejection
85.973	0.2	ToneStart	Standard	31	0	0	1	n/a	CorrectRejection
87.24	2	TrialStart	Standard	32	0	0	1	n/a	CorrectRejection
89.24	0.2	ToneStart	Standard	32	0	0	1	n/a	CorrectRejection
90.506	1	TrialStart	Novel	33	0	0	1	n/a	CorrectRejection
91.507	0.2	ToneStart	Novel	33	0	0	1	n/a	CorrectRejection
92.773	2	TrialStart	Standard	34	0	0	1	n/a	CorrectRejection
94.772	0.2	ToneStart	Standard	34	0	0	1	n/a	CorrectRejection
96.039	2	TrialStart	Standard	35	0	0	1	n/a	CorrectRejection
98.039	0.2	ToneStart	Standard	35	0	0	1	n/a	CorrectRejection
99.305	1	TrialStart	Standard	36	0	0	1	n/a	CorrectRejection
100.305	0.2	ToneStart	Standard	36	0	0	1	n/a	CorrectRejection
101.572	1	TrialStart	Standard	37	0	0	1	n/a	CorrectRejection
102.572	0.2	ToneStart	Standard	37	0	0	1	n/a	CorrectRejection
103.838	2	TrialStart	Standard	38	0	0	1	n/a	CorrectRejection
105.838	0.2	ToneStart	Standard	38	0	0	1	n/a	CorrectRejection
107.105	2	TrialStart	Oddball	39	1	1	1	658	Hit
109.104	0.2	ToneStart	Oddball	39	1	1	1	658	Hit
110.371	2	TrialStart	Standard	40	0	0	1	n/a	CorrectRejection
112.371	0.2	ToneStart	Standard	40	0	0	1	n/a	CorrectRejection
113.637	2	TrialStart	Standard	41	0	0	1	n/a	CorrectRejection
115.637	0.2	ToneStart	Standard	41	0	0	1	n/a	CorrectRejection
116.904	1	TrialStart	Standard	42	0	0	1	n/a	CorrectRejection
117.903	0.2	ToneStart	Standard	42	0	0	1	n/a	CorrectRejection
119.17	1	TrialStart	Standard	43	0	0	1	n/a	CorrectRejection
120.17	0.2	ToneStart	Standard	43	0	0	1	n/a	CorrectRejection
121.437	1	TrialStart	Novel	44	0	0	1	n/a	CorrectRejection
122.436	0.2	ToneStart	Novel	44	0	0	1	n/a	CorrectRejection
123.686	1	TrialStart	Standard	45	0	0	1	n/a	CorrectRejection
124.686	0.2	ToneStart	Standard	45	0	0	1	n/a	CorrectRejection
125.953	2	TrialStart	Standard	46	0	0	1	n/a	CorrectRejection
127.952	0.2	ToneStart	Standard	46	0	0	1	n/a	CorrectRejection
129.202	2	TrialStart	Standard	47	0	0	1	n/a	CorrectRejection
131.202	0.2	ToneStart	Standard	47	0	0	1	n/a	CorrectRejection
132.452	1	TrialStart	Standard	48	0	0	1	n/a	CorrectRejection
133.452	0.2	ToneStart	Standard	48	0	0	1	n/a	CorrectRejection
134.719	2	TrialStart	Oddball	49	1	1	1	869	Hit
136.718	0.2	ToneStart	Oddball	49	1	1	1	869	Hit
137.985	2	TrialStart	Standard	50	0	0	1	n/a	CorrectRejection
139.985	0.2	ToneStart	Standard	50	0	0	1	n/a	CorrectRejection
141.251	2	TrialStart	Standard	51	0	0	1	n/a	CorrectRejection
143.251	0.2	ToneStart	Standard	51	0	0	1	n/a	CorrectRejection
144.518	2	TrialStart	Standard	52	0	0	1	n/a	CorrectRejection
146.517	0.2	ToneStart	Standard	52	0	0	1	n/a	CorrectRejection
147.767	2	TrialStart	Novel	53	0	0	1	n/a	CorrectRejection
149.767	0.2	ToneStart	Novel	53	0	0	1	n/a	CorrectRejection
151.017	2	TrialStart	Standard	54	0	0	1	n/a	CorrectRejection
153.017	0.2	ToneStart	Standard	54	0	0	1	n/a	CorrectRejection
154.267	1	TrialStart	Standard	55	0	0	1	n/a	CorrectRejection
155.267	0.2	ToneStart	Standard	55	0	0	1	n/a	CorrectRejection
156.516	1	TrialStart	Novel	56	0	0	1	n/a	CorrectRejection
157.517	0.2	ToneStart	Novel	56	0	0	1	n/a	CorrectRejection
158.766	2	TrialStart	Standard	57	0	0	1	n/a	CorrectRejection
160.766	0.2	ToneStart	Standard	57	0	0	1	n/a	CorrectRejection
162.032	1	TrialStart	Standard	58	0	0	1	n/a	CorrectRejection
163.032	0.2	ToneStart	Standard	58	0	0	1	n/a	CorrectRejection
164.282	1	TrialStart	Standard	59	0	0	1	n/a	CorrectRejection
165.282	0.2	ToneStart	Standard	59	0	0	1	n/a	CorrectRejection
166.532	1	TrialStart	Oddball	60	1	1	1	750	Hit
167.532	0.2	ToneStart	Oddball	60	1	1	1	750	Hit
168.782	1	TrialStart	Standard	61	0	0	1	n/a	CorrectRejection
169.783	0.2	ToneStart	Standard	61	0	0	1	n/a	CorrectRejection
171.048	2	TrialStart	Standard	62	0	0	1	n/a	CorrectRejection
173.048	0.2	ToneStart	Standard	62	0	0	1	n/a	CorrectRejection
174.298	2	TrialStart	Standard	63	0	0	1	n/a	CorrectRejection
176.298	0.2	ToneStart	Standard	63	0	0	1	n/a	CorrectRejection
177.548	1	TrialStart	Standard	64	0	0	1	n/a	CorrectRejection
178.548	0.2	ToneStart	Standard	64	0	0	1	n/a	CorrectRejection
179.797	1	TrialStart	Novel	65	0	0	1	n/a	CorrectRejection
180.797	0.2	ToneStart	Novel	65	0	0	1	n/a	CorrectRejection
182.047	2	TrialStart	Standard	66	0	0	1	n/a	CorrectRejection
184.047	0.2	ToneStart	Standard	66	0	0	1	n/a	CorrectRejection
185.297	1	TrialStart	Standard	67	0	0	1	n/a	CorrectRejection
186.297	0.2	ToneStart	Standard	67	0	0	1	n/a	CorrectRejection
187.547	2	TrialStart	Oddball	68	1	1	1	678	Hit
189.547	0.2	ToneStart	Oddball	68	1	1	1	678	Hit
190.796	1	TrialStart	Standard	69	0	0	1	n/a	CorrectRejection
191.796	0.2	ToneStart	Standard	69	0	0	1	n/a	CorrectRejection
193.046	1	TrialStart	Standard	70	0	0	1	n/a	CorrectRejection
194.046	0.2	ToneStart	Standard	70	0	0	1	n/a	CorrectRejection
195.296	2	TrialStart	Standard	71	0	0	1	n/a	CorrectRejection
197.296	0.2	ToneStart	Standard	71	0	0	1	n/a	CorrectRejection
198.546	2	TrialStart	Standard	72	0	0	1	n/a	CorrectRejection
200.545	0.2	ToneStart	Standard	72	0	0	1	n/a	CorrectRejection
201.795	1	TrialStart	Standard	73	0	0	1	n/a	CorrectRejection
202.795	0.2	ToneStart	Standard	73	0	0	1	n/a	CorrectRejection
204.045	2	TrialStart	Standard	74	0	0	1	n/a	CorrectRejection
206.045	0.2	ToneStart	Standard	74	0	0	1	n/a	CorrectRejection
207.311	2	TrialStart	Oddball	75	1	1	1	653	Hit
209.311	0.2	ToneStart	Oddball	75	1	1	1	653	Hit
210.561	2	TrialStart	Standard	76	0	0	1	n/a	CorrectRejection
212.561	0.2	ToneStart	Standard	76	0	0	1	n/a	CorrectRejection
213.811	1	TrialStart	Standard	77	0	0	1	n/a	CorrectRejection
214.811	0.2	ToneStart	Standard	77	0	0	1	n/a	CorrectRejection
216.061	2	TrialStart	Standard	78	0	0	1	n/a	CorrectRejection
218.06	0.2	ToneStart	Standard	78	0	0	1	n/a	CorrectRejection
219.31	1	TrialStart	Novel	79	0	0	1	n/a	CorrectRejection
220.31	0.2	ToneStart	Novel	79	0	0	1	n/a	CorrectRejection
221.56	2	TrialStart	Standard	80	0	0	1	n/a	CorrectRejection
223.56	0.2	ToneStart	Standard	80	0	0	1	n/a	CorrectRejection
224.81	2	TrialStart	Standard	81	0	0	1	n/a	CorrectRejection
226.809	0.2	ToneStart	Standard	81	0	0	1	n/a	CorrectRejection
228.059	2	TrialStart	Oddball	82	1	1	1	821	Hit
230.059	0.2	ToneStart	Oddball	82	1	1	1	821	Hit
231.309	2	TrialStart	Standard	83	0	0	1	n/a	CorrectRejection
233.309	0.2	ToneStart	Standard	83	0	0	1	n/a	CorrectRejection
234.575	2	TrialStart	Standard	84	0	0	1	n/a	CorrectRejection
236.575	0.2	ToneStart	Standard	84	0	0	1	n/a	CorrectRejection
237.825	2	TrialStart	Novel	85	0	0	1	n/a	CorrectRejection
239.825	0.2	ToneStart	Novel	85	0	0	1	n/a	CorrectRejection
241.075	1	TrialStart	Standard	86	0	0	1	n/a	CorrectRejection
242.076	0.2	ToneStart	Standard	86	0	0	1	n/a	CorrectRejection
243.341	2	TrialStart	Standard	87	0	0	1	n/a	CorrectRejection
245.341	0.2	ToneStart	Standard	87	0	0	1	n/a	CorrectRejection
246.608	1	TrialStart	Standard	88	0	0	1	n/a	CorrectRejection
247.607	0.2	ToneStart	Standard	88	0	0	1	n/a	CorrectRejection
248.874	1	TrialStart	Standard	89	0	0	1	n/a	CorrectRejection
249.874	0.2	ToneStart	Standard	89	0	0	1	n/a	CorrectRejection
251.124	2	TrialStart	Standard	90	0	0	1	n/a	CorrectRejection
253.124	0.2	ToneStart	Standard	90	0	0	1	n/a	CorrectRejection
254.39	1	TrialStart	Standard	91	0	0	1	n/a	CorrectRejection
255.39	0.2	ToneStart	Standard	91	0	0	1	n/a	CorrectRejection
256.657	1	TrialStart	Standard	92	0	0	1	n/a	CorrectRejection
257.657	0.2	ToneStart	Standard	92	0	0	1	n/a	CorrectRejection
258.923	2	TrialStart	Standard	93	0	0	1	n/a	CorrectRejection
260.923	0.2	ToneStart	Standard	93	0	0	1	n/a	CorrectRejection
262.189	1	TrialStart	Novel	94	0	0	1	n/a	CorrectRejection
263.189	0.2	ToneStart	Novel	94	0	0	1	n/a	CorrectRejection
264.439	2	TrialStart	Oddball	95	1	1	1	757	Hit
266.439	0.2	ToneStart	Oddball	95	1	1	1	757	Hit
267.705	2	TrialStart	Standard	96	0	0	1	n/a	CorrectRejection
269.705	0.2	ToneStart	Standard	96	0	0	1	n/a	CorrectRejection
270.972	1	TrialStart	Standard	97	0	0	1	n/a	CorrectRejection
271.972	0.2	ToneStart	Standard	97	0	0	1	n/a	CorrectRejection
273.238	2	TrialStart	Standard	98	0	0	1	n/a	CorrectRejection
275.238	0.2	ToneStart	Standard	98	0	0	1	n/a	CorrectRejection
276.505	1	TrialStart	Standard	99	0	0	1	n/a	CorrectRejection
277.505	0.2	ToneStart	Standard	99	0	0	1	n/a	CorrectRejection
278.771	1	TrialStart	Standard	100	0	0	1	n/a	CorrectRejection
279.771	0.2	ToneStart	Standard	100	0	0	1	n/a	CorrectRejection
281.038	1	TrialStart	Standard	101	0	0	1	n/a	CorrectRejection
282.038	0.2	ToneStart	Standard	101	0	0	1	n/a	CorrectRejection
283.304	1	TrialStart	Standard	102	0	0	1	n/a	CorrectRejection
284.305	0.2	ToneStart	Standard	102	0	0	1	n/a	CorrectRejection
285.57	1	TrialStart	Standard	103	0	0	1	n/a	CorrectRejection
286.57	0.2	ToneStart	Standard	103	0	0	1	n/a	CorrectRejection
287.837	1	TrialStart	Standard	104	0	0	1	n/a	CorrectRejection
288.837	0.2	ToneStart	Standard	104	0	0	1	n/a	CorrectRejection
290.103	1	TrialStart	Oddball	105	1	1	1	746	Hit
291.103	0.2	ToneStart	Oddball	105	1	1	1	746	Hit
292.353	2	TrialStart	Standard	106	0	0	1	n/a	CorrectRejection
294.353	0.2	ToneStart	Standard	106	0	0	1	n/a	CorrectRejection
295.619	1	TrialStart	Standard	107	0	0	1	n/a	CorrectRejection
296.619	0.2	ToneStart	Standard	107	0	0	1	n/a	CorrectRejection
297.886	1	TrialStart	Standard	108	0	0	1	n/a	CorrectRejection
298.886	0.2	ToneStart	Standard	108	0	0	1	n/a	CorrectRejection
300.152	1	TrialStart	Standard	109	0	0	1	n/a	CorrectRejection
301.152	0.2	ToneStart	Standard	109	0	0	1	n/a	CorrectRejection
302.419	2	TrialStart	Standard	110	0	0	1	n/a	CorrectRejection
304.419	0.2	ToneStart	Standard	110	0	0	1	n/a	CorrectRejection
305.685	1	TrialStart	Oddball	111	1	1	1	630	Hit
306.685	0.2	ToneStart	Oddball	111	1	1	1	630	Hit
307.952	1	TrialStart	Standard	112	0	0	1	n/a	CorrectRejection
308.951	0.2	ToneStart	Standard	112	0	0	1	n/a	CorrectRejection
310.218	2	TrialStart	Standard	113	0	0	1	n/a	CorrectRejection
312.218	0.2	ToneStart	Standard	113	0	0	1	n/a	CorrectRejection
313.484	2	TrialStart	Standard	114	0	0	1	n/a	CorrectRejection
315.484	0.2	ToneStart	Standard	114	0	0	1	n/a	CorrectRejection
316.734	2	TrialStart	Standard	115	0	0	1	n/a	CorrectRejection
318.734	0.2	ToneStart	Standard	115	0	0	1	n/a	CorrectRejection
320	1	TrialStart	Standard	116	0	0	1	n/a	CorrectRejection
321	0.2	ToneStart	Standard	116	0	0	1	n/a	CorrectRejection
322.267	2	TrialStart	Standard	117	0	0	1	n/a	CorrectRejection
324.267	0.2	ToneStart	Standard	117	0	0	1	n/a	CorrectRejection
325.533	1	TrialStart	Standard	118	0	0	1	n/a	CorrectRejection
326.533	0.2	ToneStart	Standard	118	0	0	1	n/a	CorrectRejection
327.8	1	TrialStart	Standard	119	0	0	1	n/a	CorrectRejection
328.8	0.2	ToneStart	Standard	119	0	0	1	n/a	CorrectRejection
330.066	1	TrialStart	Standard	120	0	0	1	n/a	CorrectRejection
331.066	0.2	ToneStart	Standard	120	0	0	1	n/a	CorrectRejection
