onset	duration	TrialEvent	ToneLabel	Trial	CRESP	RESP	ACC	RT	Code
0.055	2	TrialStart	Standard	1	0	0	1	n/a	CorrectRejection
2.055	0.2	ToneStart	Standard	1	0	0	1	n/a	CorrectRejection
3.321	2	TrialStart	Standard	2	0	0	1	n/a	CorrectRejection
5.321	0.2	ToneStart	Standard	2	0	0	1	n/a	CorrectRejection
6.588	2	TrialStart	Standard	3	0	0	1	n/a	CorrectRejection
8.587	0.2	ToneStart	Standard	3	0	0	1	n/a	CorrectRejection
9.854	2	TrialStart	Novel	4	0	0	1	n/a	CorrectRejection
11.854	0.2	ToneStart	Novel	4	0	0	1	n/a	CorrectRejection
13.12	1	TrialStart	Standard	5	0	0	1	n/a	CorrectRejection
14.12	0.2	ToneStart	Standard	5	0	0	1	n/a	CorrectRejection
15.387	1	TrialStart	Standard	6	0	0	1	n/a	CorrectRejection
16.387	0.2	ToneStart	Standard	6	0	0	1	n/a	CorrectRejection
17.653	2	TrialStart	Standard	7	0	0	1	n/a	CorrectRejection
19.653	0.2	ToneStart	Standard	7	0	0	1	n/a	CorrectRejection
20.919	1	TrialStart	Standard	8	0	0	1	n/a	CorrectRejection
21.919	0.2	ToneStart	Standard	8	0	0	1	n/a	CorrectRejection
23.186	1	TrialStart	Standard	9	0	0	1	n/a	CorrectRejection
24.186	0.2	ToneStart	Standard	9	0	0	1	n/a	CorrectRejection
25.452	1	TrialStart	Standard	10	0	0	1	n/a	CorrectRejection
26.452	0.2	ToneStart	Standard	10	0	0	1	n/a	CorrectRejection
27.719	1	TrialStart	Oddball	11	1	1	1	398	Hit
28.719	0.2	ToneStart	Oddball	11	1	1	1	398	Hit
29.985	1	TrialStart	Standard	12	0	0	1	n/a	CorrectRejection
30.985	0.2	ToneStart	Standard	12	0	0	1	n/a	CorrectRejection
32.252	2	TrialStart	Standard	13	0	0	1	n/a	CorrectRejection
34.251	0.2	ToneStart	Standard	13	0	0	1	n/a	CorrectRejection
35.518	1	TrialStart	Standard	14	0	0	1	n/a	CorrectRejection
36.518	0.2	ToneStart	Standard	14	0	0	1	n/a	CorrectRejection
37.784	2	TrialStart	Standard	15	0	0	1	n/a	CorrectRejection
39.784	0.2	ToneStart	Standard	15	0	0	1	n/a	CorrectRejection
41.051	2	TrialStart	Standard	16	0	0	1	n/a	CorrectRejection
43.05	0.2	ToneStart	Standard	16	0	0	1	n/a	CorrectRejection
44.317	1	TrialStart	Novel	17	0	0	1	n/a	CorrectRejection
45.318	0.2	ToneStart	Novel	17	0	0	1	n/a	CorrectRejection
46.583	2	TrialStart	Standard	18	0	0	1	n/a	CorrectRejection
48.583	0.2	ToneStart	Standard	18	0	0	1	n/a	CorrectRejection
49.833	2	TrialStart	Standard	19	0	0	1	n/a	CorrectRejection
51.833	0.2	ToneStart	Standard	19	0	0	1	n/a	CorrectRejection
53.099	1	TrialStart	Standard	20	0	0	1	n/a	CorrectRejection
54.099	0.2	ToneStart	Standard	20	0	0	1	n/a	CorrectRejection
55.366	2	TrialStart	Standard	21	0	0	1	n/a	CorrectRejection
57.366	0.2	ToneStart	Standard	21	0	0	1	n/a	CorrectRejection
58.632	2	TrialStart	Standard	22	0	0	1	n/a	CorrectRejection
60.632	0.2	ToneStart	Standard	22	0	0	1	n/a	CorrectRejection
61.898	1	TrialStart	Novel	23	0	0	1	n/a	CorrectRejection
62.898	0.2	ToneStart	Novel	23	0	0	1	n/a	CorrectRejection
64.165	2	TrialStart	Oddball	24	1	1	1	392	Hit
66.165	0.2	ToneStart	Oddball	24	1	1	1	392	Hit
67.431	2	TrialStart	Standard	25	0	0	1	n/a	CorrectRejection
69.431	0.2	ToneStart	Standard	25	0	0	1	n/a	CorrectRejection
70.697	2	TrialStart	Standard	26	0	0	1	n/a	CorrectRejection
72.697	0.2	ToneStart	Standard	26	0	0	1	n/a	CorrectRejection
73.964	1	TrialStart	Standard	27	0	0	1	n/a	CorrectRejection
74.964	0.2	ToneStart	Standard	27	0	0	1	n/a	CorrectRejection
76.23	2	TrialStart	Standard	28	0	0	1	n/a	CorrectRejection
78.23	0.2	ToneStart	Standard	28	0	0	1	n/a	CorrectRejection
79.496	2	TrialStart	Oddball	29	1	1	1	344	Hit
81.496	0.2	ToneStart	Oddball	29	1	1	1	344	Hit
82.763	1	TrialStart	Novel	30	0	0	1	n/a	CorrectRejection
83.763	0.2	ToneStart	Novel	30	0	0	1	n/a	CorrectRejection
85.029	1	TrialStart	Standard	31	0	0	1	n/a	CorrectRejection
86.029	0.2	ToneStart	Standard	31	0	0	1	n/a	CorrectRejection
87.296	2	TrialStart	Standard	32	0	0	1	n/a	CorrectRejection
89.295	0.2	ToneStart	Standard	32	0	0	1	n/a	CorrectRejection
90.562	1	TrialStart	Novel	33	0	0	1	n/a	CorrectRejection
91.562	0.2	ToneStart	Novel	33	0	0	1	n/a	CorrectRejection
92.828	2	TrialStart	Standard	34	0	0	1	n/a	CorrectRejection
94.828	0.2	ToneStart	Standard	34	0	0	1	n/a	CorrectRejection
96.095	2	TrialStart	Standard	35	0	0	1	n/a	CorrectRejection
98.095	0.2	ToneStart	Standard	35	0	0	1	n/a	CorrectRejection
99.361	1	TrialStart	Standard	36	0	0	1	n/a	CorrectRejection
100.361	0.2	ToneStart	Standard	36	0	0	1	n/a	CorrectRejection
101.627	1	TrialStart	Standard	37	0	0	1	n/a	CorrectRejection
102.627	0.2	ToneStart	Standard	37	0	0	1	n/a	CorrectRejection
103.894	2	TrialStart	Standard	38	0	0	1	n/a	CorrectRejection
105.894	0.2	ToneStart	Standard	38	0	0	1	n/a	CorrectRejection
107.16	2	TrialStart	Oddball	39	1	1	1	309	Hit
109.16	0.2	ToneStart	Oddball	39	1	1	1	309	Hit
110.427	2	TrialStart	Standard	40	0	0	1	n/a	CorrectRejection
112.426	0.2	ToneStart	Standard	40	0	0	1	n/a	CorrectRejection
113.693	2	TrialStart	Standard	41	0	0	1	n/a	CorrectRejection
115.693	0.2	ToneStart	Standard	41	0	0	1	n/a	CorrectRejection
116.959	1	TrialStart	Standard	42	0	0	1	n/a	CorrectRejection
117.959	0.2	ToneStart	Standard	42	0	0	1	n/a	CorrectRejection
119.209	1	TrialStart	Standard	43	0	0	1	n/a	CorrectRejection
120.209	0.2	ToneStart	Standard	43	0	0	1	n/a	CorrectRejection
121.475	1	TrialStart	Novel	44	0	0	1	n/a	CorrectRejection
122.475	0.2	ToneStart	Novel	44	0	0	1	n/a	CorrectRejection
123.742	1	TrialStart	Standard	45	0	0	1	n/a	CorrectRejection
124.742	0.2	ToneStart	Standard	45	0	0	1	n/a	CorrectRejection
126.008	2	TrialStart	Standard	46	0	0	1	n/a	CorrectRejection
128.008	0.2	ToneStart	Standard	46	0	0	1	n/a	CorrectRejection
129.258	2	TrialStart	Standard	47	0	0	1	n/a	CorrectRejection
131.258	0.2	ToneStart	Standard	47	0	0	1	n/a	CorrectRejection
132.524	1	TrialStart	Standard	48	0	0	1	n/a	CorrectRejection
133.524	0.2	ToneStart	Standard	48	0	0	1	n/a	CorrectRejection
134.791	2	TrialStart	Oddball	49	1	1	1	425	Hit
136.79	0.2	ToneStart	Oddball	49	1	1	1	425	Hit
138.057	2	TrialStart	Standard	50	0	0	1	n/a	CorrectRejection
140.057	0.2	ToneStart	Standard	50	0	0	1	n/a	CorrectRejection
141.323	2	TrialStart	Standard	51	0	0	1	n/a	CorrectRejection
143.323	0.2	ToneStart	Standard	51	0	0	1	n/a	CorrectRejection
144.59	2	TrialStart	Standard	52	0	0	1	n/a	CorrectRejection
146.589	0.2	ToneStart	Standard	52	0	0	1	n/a	CorrectRejection
147.839	2	TrialStart	Novel	53	0	0	1	n/a	CorrectRejection
149.839	0.2	ToneStart	Novel	53	0	0	1	n/a	CorrectRejection
151.089	2	TrialStart	Standard	54	0	0	1	n/a	CorrectRejection
153.089	0.2	ToneStart	Standard	54	0	0	1	n/a	CorrectRejection
154.338	1	TrialStart	Standard	55	0	0	1	n/a	CorrectRejection
155.338	0.2	ToneStart	Standard	55	0	0	1	n/a	CorrectRejection
156.588	1	TrialStart	Novel	56	0	0	1	n/a	CorrectRejection
157.588	0.2	ToneStart	Novel	56	0	0	1	n/a	CorrectRejection
158.838	2	TrialStart	Standard	57	0	0	1	n/a	CorrectRejection
160.838	0.2	ToneStart	Standard	57	0	0	1	n/a	CorrectRejection
162.088	1	TrialStart	Standard	58	0	0	1	n/a	CorrectRejection
163.088	0.2	ToneStart	Standard	58	0	0	1	n/a	CorrectRejection
164.337	1	TrialStart	Standard	59	0	0	1	n/a	CorrectRejection
165.337	0.2	ToneStart	Standard	59	0	0	1	n/a	CorrectRejection
166.587	1	TrialStart	Oddball	60	1	1	1	375	Hit
167.587	0.2	ToneStart	Oddball	60	1	1	1	375	Hit
168.837	1	TrialStart	Standard	61	0	0	1	n/a	CorrectRejection
169.837	0.2	ToneStart	Standard	61	0	0	1	n/a	CorrectRejection
171.087	2	TrialStart	Standard	62	0	0	1	n/a	CorrectRejection
173.086	0.2	ToneStart	Standard	62	0	0	1	n/a	CorrectRejection
174.336	2	TrialStart	Standard	63	0	0	1	n/a	CorrectRejection
176.336	0.2	ToneStart	Standard	63	0	0	1	n/a	CorrectRejection
177.586	1	TrialStart	Standard	64	0	0	1	n/a	CorrectRejection
178.586	0.2	ToneStart	Standard	64	0	0	1	n/a	CorrectRejection
179.836	1	TrialStart	Novel	65	0	0	1	n/a	CorrectRejection
180.836	0.2	ToneStart	Novel	65	0	0	1	n/a	CorrectRejection
182.086	2	TrialStart	Standard	66	0	0	1	n/a	CorrectRejection
184.085	0.2	ToneStart	Standard	66	0	0	1	n/a	CorrectRejection
185.335	1	TrialStart	Standard	67	0	0	1	n/a	CorrectRejection
186.335	0.2	ToneStart	Standard	67	0	0	1	n/a	CorrectRejection
187.602	2	TrialStart	Oddball	68	1	1	1	448	Hit
189.601	0.2	ToneStart	Oddball	68	1	1	1	448	Hit
190.868	1	TrialStart	Standard	69	0	0	1	n/a	CorrectRejection
191.868	0.2	ToneStart	Standard	69	0	0	1	n/a	CorrectRejection
193.134	1	TrialStart	Standard	70	0	0	1	n/a	CorrectRejection
194.134	0.2	ToneStart	Standard	70	0	0	1	n/a	CorrectRejection
195.401	2	TrialStart	Standard	71	0	0	1	n/a	CorrectRejection
197.401	0.2	ToneStart	Standard	71	0	0	1	n/a	CorrectRejection
198.667	2	TrialStart	Standard	72	0	0	1	n/a	CorrectRejection
200.667	0.2	ToneStart	Standard	72	0	0	1	n/a	CorrectRejection
201.933	1	TrialStart	Standard	73	0	0	1	n/a	CorrectRejection
202.933	0.2	ToneStart	Standard	73	0	0	1	n/a	CorrectRejection
204.2	2	TrialStart	Standard	74	0	0	1	n/a	CorrectRejection
206.2	0.2	ToneStart	Standard	74	0	0	1	n/a	CorrectRejection
207.466	2	TrialStart	Oddball	75	1	1	1	454	Hit
209.466	0.2	ToneStart	Oddball	75	1	1	1	454	Hit
210.732	2	TrialStart	Standard	76	0	0	1	n/a	CorrectRejection
212.732	0.2	ToneStart	Standard	76	0	0	1	n/a	CorrectRejection
213.999	1	TrialStart	Standard	77	0	0	1	n/a	CorrectRejection
214.999	0.2	ToneStart	Standard	77	0	0	1	n/a	CorrectRejection
216.265	2	TrialStart	Standard	78	0	0	1	n/a	CorrectRejection
218.265	0.2	ToneStart	Standard	78	0	0	1	n/a	CorrectRejection
219.532	1	TrialStart	Novel	79	0	0	1	n/a	CorrectRejection
220.531	0.2	ToneStart	Novel	79	0	0	1	n/a	CorrectRejection
221.798	2	TrialStart	Standard	80	0	0	1	n/a	CorrectRejection
223.798	0.2	ToneStart	Standard	80	0	0	1	n/a	CorrectRejection
225.064	2	TrialStart	Standard	81	0	0	1	n/a	CorrectRejection
227.064	0.2	ToneStart	Standard	81	0	0	1	n/a	CorrectRejection
228.331	2	TrialStart	Oddball	82	1	1	1	374	Hit
230.33	0.2	ToneStart	Oddball	82	1	1	1	374	Hit
231.597	2	TrialStart	Standard	83	0	0	1	n/a	CorrectRejection
233.597	0.2	ToneStart	Standard	83	0	0	1	n/a	CorrectRejection
234.863	2	TrialStart	Standard	84	0	0	1	n/a	CorrectRejection
236.863	0.2	ToneStart	Standard	84	0	0	1	n/a	CorrectRejection
238.13	2	TrialStart	Novel	85	0	0	1	n/a	CorrectRejection
240.129	0.2	ToneStart	Novel	85	0	0	1	n/a	CorrectRejection
241.396	1	TrialStart	Standard	86	0	0	1	n/a	CorrectRejection
242.396	0.2	ToneStart	Standard	86	0	0	1	n/a	CorrectRejection
243.662	2	TrialStart	Standard	87	0	0	1	n/a	CorrectRejection
245.662	0.2	ToneStart	Standard	87	0	0	1	n/a	CorrectRejection
246.912	1	TrialStart	Standard	88	0	0	1	n/a	CorrectRejection
247.912	0.2	ToneStart	Standard	88	0	0	1	n/a	CorrectRejection
249.178	1	TrialStart	Standard	89	0	0	1	n/a	CorrectRejection
250.178	0.2	ToneStart	Standard	89	0	0	1	n/a	CorrectRejection
251.445	2	TrialStart	Standard	90	0	0	1	n/a	CorrectRejection
253.445	0.2	ToneStart	Standard	90	0	0	1	n/a	CorrectRejection
254.711	1	TrialStart	Standard	91	0	0	1	n/a	CorrectRejection
255.711	0.2	ToneStart	Standard	91	0	0	1	n/a	CorrectRejection
256.978	1	TrialStart	Standard	92	0	0	1	n/a	CorrectRejection
257.977	0.2	ToneStart	Standard	92	0	0	1	n/a	CorrectRejection
259.244	2	TrialStart	Standard	93	0	0	1	n/a	CorrectRejection
261.244	0.2	ToneStart	Standard	93	0	0	1	n/a	CorrectRejection
262.51	1	TrialStart	Novel	94	0	0	1	n/a	CorrectRejection
263.51	0.2	ToneStart	Novel	94	0	0	1	n/a	CorrectRejection
264.777	2	TrialStart	Oddball	95	1	1	1	421	Hit
266.776	0.2	ToneStart	Oddball	95	1	1	1	421	Hit
268.043	2	TrialStart	Standard	96	0	0	1	n/a	CorrectRejection
270.043	0.2	ToneStart	Standard	96	0	0	1	n/a	CorrectRejection
271.309	1	TrialStart	Standard	97	0	0	1	n/a	CorrectRejection
272.309	0.2	ToneStart	Standard	97	0	0	1	n/a	CorrectRejection
273.576	2	TrialStart	Standard	98	0	0	1	n/a	CorrectRejection
275.576	0.2	ToneStart	Standard	98	0	0	1	n/a	CorrectRejection
276.842	1	TrialStart	Standard	99	0	0	1	n/a	CorrectRejection
277.842	0.2	ToneStart	Standard	99	0	0	1	n/a	CorrectRejection
279.108	1	TrialStart	Standard	100	0	0	1	n/a	CorrectRejection
280.108	0.2	ToneStart	Standard	100	0	0	1	n/a	CorrectRejection
281.375	1	TrialStart	Standard	101	0	0	1	n/a	CorrectRejection
282.375	0.2	ToneStart	Standard	101	0	0	1	n/a	CorrectRejection
283.641	1	TrialStart	Standard	102	0	0	1	n/a	CorrectRejection
284.641	0.2	ToneStart	Standard	102	0	0	1	n/a	CorrectRejection
285.908	1	TrialStart	Standard	103	0	0	1	n/a	CorrectRejection
286.908	0.2	ToneStart	Standard	103	0	0	1	n/a	CorrectRejection
288.174	1	TrialStart	Standard	104	0	0	1	n/a	CorrectRejection
289.174	0.2	ToneStart	Standard	104	0	0	1	n/a	CorrectRejection
290.441	1	TrialStart	Oddball	105	1	1	1	363	Hit
291.441	0.2	ToneStart	Oddball	105	1	1	1	363	Hit
292.707	2	TrialStart	Standard	106	0	0	1	n/a	CorrectRejection
294.707	0.2	ToneStart	Standard	106	0	0	1	n/a	CorrectRejection
295.973	1	TrialStart	Standard	107	0	0	1	n/a	CorrectRejection
296.973	0.2	ToneStart	Standard	107	0	0	1	n/a	CorrectRejection
298.24	1	TrialStart	Standard	108	0	0	1	n/a	CorrectRejection
299.24	0.2	ToneStart	Standard	108	0	0	1	n/a	CorrectRejection
300.506	1	TrialStart	Standard	109	0	0	1	n/a	CorrectRejection
301.506	0.2	ToneStart	Standard	109	0	0	1	n/a	CorrectRejection
302.773	2	TrialStart	Standard	110	0	0	1	n/a	CorrectRejection
304.772	0.2	ToneStart	Standard	110	0	0	1	n/a	CorrectRejection
306.022	1	TrialStart	Oddball	111	1	1	1	349	Hit
307.022	0.2	ToneStart	Oddball	111	1	1	1	349	Hit
308.272	1	TrialStart	Standard	112	0	0	1	n/a	CorrectRejection
309.272	0.2	ToneStart	Standard	112	0	0	1	n/a	CorrectRejection
310.522	2	TrialStart	Standard	113	0	0	1	n/a	CorrectRejection
312.522	0.2	ToneStart	Standard	113	0	0	1	n/a	CorrectRejection
313.788	2	TrialStart	Standard	114	0	0	1	n/a	CorrectRejection
315.788	0.2	ToneStart	Standard	114	0	0	1	n/a	CorrectRejection
317.038	2	TrialStart	Standard	115	0	0	1	n/a	CorrectRejection
319.038	0.2	ToneStart	Standard	115	0	0	1	n/a	CorrectRejection
320.304	1	TrialStart	Standard	116	0	0	1	n/a	CorrectRejection
321.304	0.2	ToneStart	Standard	116	0	0	1	n/a	CorrectRejection
322.571	2	TrialStart	Standard	117	0	0	1	n/a	CorrectRejection
324.57	0.2	ToneStart	Standard	117	0	0	1	n/a	CorrectRejection
325.837	1	TrialStart	Standard	118	0	0	1	n/a	CorrectRejection
326.837	0.2	ToneStart	Standard	118	0	0	1	n/a	CorrectRejection
328.103	1	TrialStart	Standard	119	0	0	1	n/a	CorrectRejection
329.103	0.2	ToneStart	Standard	119	0	0	1	n/a	CorrectRejection
330.353	1	TrialStart	Standard	120	0	0	1	n/a	CorrectRejection
331.353	0.2	ToneStart	Standard	120	0	0	1	n/a	CorrectRejection
