onset	duration	TrialEvent	ToneLabel	Trial	CRESP	RESP	ACC	RT	Code
0.054	2	TrialStart	Standard	1	0	0	1	n/a	CorrectRejection
2.054	0.2	ToneStart	Standard	1	0	0	1	n/a	CorrectRejection
3.337	2	TrialStart	Standard	2	0	0	1	n/a	CorrectRejection
5.336	0.2	ToneStart	Standard	2	0	0	1	n/a	CorrectRejection
6.603	2	TrialStart	Standard	3	0	0	1	n/a	CorrectRejection
8.603	0.2	ToneStart	Standard	3	0	0	1	n/a	CorrectRejection
9.869	2	TrialStart	Novel	4	0	0	1	n/a	CorrectRejection
11.869	0.2	ToneStart	Novel	4	0	0	1	n/a	CorrectRejection
13.119	1	TrialStart	Standard	5	0	0	1	n/a	CorrectRejection
14.119	0.2	ToneStart	Standard	5	0	0	1	n/a	CorrectRejection
15.369	1	TrialStart	Standard	6	0	0	1	n/a	CorrectRejection
16.385	0.2	ToneStart	Standard	6	0	0	1	n/a	CorrectRejection
17.652	2	TrialStart	Standard	7	0	0	1	n/a	CorrectRejection
19.652	0.2	ToneStart	Standard	7	0	0	1	n/a	CorrectRejection
20.924	1	TrialStart	Standard	8	0	0	1	n/a	CorrectRejection
21.935	0.2	ToneStart	Standard	8	0	0	1	n/a	CorrectRejection
23.201	1	TrialStart	Standard	9	0	0	1	n/a	CorrectRejection
24.201	0.2	ToneStart	Standard	9	0	0	1	n/a	CorrectRejection
25.468	1	TrialStart	Standard	10	0	0	1	n/a	CorrectRejection
26.485	0.2	ToneStart	Standard	10	0	0	1	n/a	CorrectRejection
27.751	1	TrialStart	Oddball	11	1	1	1	911	Hit
28.751	0.2	ToneStart	Oddball	11	1	1	1	911	Hit
30.032	1	TrialStart	Standard	12	0	0	1	n/a	CorrectRejection
31.034	0.2	ToneStart	Standard	12	0	0	1	n/a	CorrectRejection
32.284	2	TrialStart	Standard	13	0	0	1	n/a	CorrectRejection
34.284	0.2	ToneStart	Standard	13	0	0	1	n/a	CorrectRejection
35.534	1	TrialStart	Standard	14	0	0	1	n/a	CorrectRejection
36.534	0.2	ToneStart	Standard	14	0	0	1	n/a	CorrectRejection
37.8	2	TrialStart	Standard	15	0	0	1	n/a	CorrectRejection
39.801	0.2	ToneStart	Standard	15	0	0	1	n/a	CorrectRejection
41.067	2	TrialStart	Standard	16	0	0	1	n/a	CorrectRejection
43.066	0.2	ToneStart	Standard	16	0	0	1	n/a	CorrectRejection
44.316	1	TrialStart	Novel	17	0	0	1	n/a	CorrectRejection
45.333	0.2	ToneStart	Novel	17	0	0	1	n/a	CorrectRejection
46.583	2	TrialStart	Standard	18	0	0	1	n/a	CorrectRejection
48.583	0.2	ToneStart	Standard	18	0	0	1	n/a	CorrectRejection
49.832	2	TrialStart	Standard	19	0	0	1	n/a	CorrectRejection
51.832	0.2	ToneStart	Standard	19	0	0	1	n/a	CorrectRejection
53.099	1	TrialStart	Standard	20	0	0	1	n/a	CorrectRejection
54.099	0.2	ToneStart	Standard	20	0	0	1	n/a	CorrectRejection
55.365	2	TrialStart	Standard	21	0	0	1	n/a	CorrectRejection
57.365	0.2	ToneStart	Standard	21	0	0	1	n/a	CorrectRejection
58.632	2	TrialStart	Standard	22	0	0	1	n/a	CorrectRejection
60.631	0.2	ToneStart	Standard	22	0	0	1	n/a	CorrectRejection
61.881	1	TrialStart	Novel	23	0	0	1	n/a	CorrectRejection
62.881	0.2	ToneStart	Novel	23	0	0	1	n/a	CorrectRejection
64.148	2	TrialStart	Oddball	24	1	1	1	709	Hit
66.148	0.2	ToneStart	Oddball	24	1	1	1	709	Hit
67.414	2	TrialStart	Standard	25	0	0	1	n/a	CorrectRejection
69.414	0.2	ToneStart	Standard	25	0	0	1	n/a	CorrectRejection
70.664	2	TrialStart	Standard	26	0	0	1	n/a	CorrectRejection
72.664	0.2	ToneStart	Standard	26	0	0	1	n/a	CorrectRejection
73.93	1	TrialStart	Standard	27	0	0	1	n/a	CorrectRejection
74.93	0.2	ToneStart	Standard	27	0	0	1	n/a	CorrectRejection
76.197	2	TrialStart	Standard	28	0	0	1	n/a	CorrectRejection
78.197	0.2	ToneStart	Standard	28	0	0	1	n/a	CorrectRejection
79.463	2	TrialStart	Oddball	29	1	1	1	611	Hit
81.463	0.2	ToneStart	Oddball	29	1	1	1	611	Hit
82.713	1	TrialStart	Novel	30	0	0	1	n/a	CorrectRejection
83.713	0.2	ToneStart	Novel	30	0	0	1	n/a	CorrectRejection
84.963	1	TrialStart	Standard	31	0	0	1	n/a	CorrectRejection
85.963	0.2	ToneStart	Standard	31	0	0	1	n/a	CorrectRejection
87.213	2	TrialStart	Standard	32	0	0	1	n/a	CorrectRejection
89.212	0.2	ToneStart	Standard	32	0	0	1	n/a	CorrectRejection
90.479	1	TrialStart	Novel	33	0	0	1	n/a	CorrectRejection
91.479	0.2	ToneStart	Novel	33	0	0	1	n/a	CorrectRejection
92.762	2	TrialStart	Standard	34	0	0	1	n/a	CorrectRejection
94.762	0.2	ToneStart	Standard	34	0	0	1	n/a	CorrectRejection
96.012	2	TrialStart	Standard	35	0	0	1	n/a	CorrectRejection
98.012	0.2	ToneStart	Standard	35	0	0	1	n/a	CorrectRejection
99.278	1	TrialStart	Standard	36	0	0	1	n/a	CorrectRejection
100.278	0.2	ToneStart	Standard	36	0	0	1	n/a	CorrectRejection
101.545	1	TrialStart	Standard	37	0	0	1	n/a	CorrectRejection
102.544	0.2	ToneStart	Standard	37	0	0	1	n/a	CorrectRejection
103.811	2	TrialStart	Standard	38	0	0	1	n/a	CorrectRejection
105.811	0.2	ToneStart	Standard	38	0	0	1	n/a	CorrectRejection
107.077	2	TrialStart	Oddball	39	1	1	1	586	Hit
109.077	0.2	ToneStart	Oddball	39	1	1	1	586	Hit
110.344	2	TrialStart	Standard	40	0	0	1	n/a	CorrectRejection
112.344	0.2	ToneStart	Standard	40	0	0	1	n/a	CorrectRejection
113.61	2	TrialStart	Standard	41	0	0	1	n/a	CorrectRejection
115.61	0.2	ToneStart	Standard	41	0	0	1	n/a	CorrectRejection
116.86	1	TrialStart	Standard	42	0	0	1	n/a	CorrectRejection
117.86	0.2	ToneStart	Standard	42	0	0	1	n/a	CorrectRejection
119.126	1	TrialStart	Standard	43	0	0	1	n/a	CorrectRejection
120.126	0.2	ToneStart	Standard	43	0	0	1	n/a	CorrectRejection
121.409	1	TrialStart	Novel	44	0	0	1	n/a	CorrectRejection
122.409	0.2	ToneStart	Novel	44	0	0	1	n/a	CorrectRejection
123.676	1	TrialStart	Standard	45	0	0	1	n/a	CorrectRejection
124.676	0.2	ToneStart	Standard	45	0	0	1	n/a	CorrectRejection
125.959	2	TrialStart	Standard	46	0	0	1	n/a	CorrectRejection
127.959	0.2	ToneStart	Standard	46	0	0	1	n/a	CorrectRejection
129.209	2	TrialStart	Standard	47	0	0	1	n/a	CorrectRejection
131.209	0.2	ToneStart	Standard	47	0	0	1	n/a	CorrectRejection
132.475	1	TrialStart	Standard	48	0	0	1	n/a	CorrectRejection
133.475	0.2	ToneStart	Standard	48	0	0	1	n/a	CorrectRejection
134.742	2	TrialStart	Oddball	49	1	1	1	828	Hit
136.741	0.2	ToneStart	Oddball	49	1	1	1	828	Hit
138.025	2	TrialStart	Standard	50	0	0	1	n/a	CorrectRejection
140.024	0.2	ToneStart	Standard	50	0	0	1	n/a	CorrectRejection
141.274	2	TrialStart	Standard	51	0	0	1	n/a	CorrectRejection
143.274	0.2	ToneStart	Standard	51	0	0	1	n/a	CorrectRejection
144.541	2	TrialStart	Standard	52	0	0	1	n/a	CorrectRejection
146.557	0.2	ToneStart	Standard	52	0	0	1	n/a	CorrectRejection
147.807	2	TrialStart	Novel	53	0	0	1	n/a	CorrectRejection
149.807	0.2	ToneStart	Novel	53	0	0	1	n/a	CorrectRejection
151.057	2	TrialStart	Standard	54	0	0	1	n/a	CorrectRejection
153.057	0.2	ToneStart	Standard	54	0	0	1	n/a	CorrectRejection
154.323	1	TrialStart	Standard	55	0	0	1	n/a	CorrectRejection
155.323	0.2	ToneStart	Standard	55	0	0	1	n/a	CorrectRejection
156.606	1	TrialStart	Novel	56	0	0	1	n/a	CorrectRejection
157.606	0.2	ToneStart	Novel	56	0	0	1	n/a	CorrectRejection
158.856	2	TrialStart	Standard	57	0	0	1	n/a	CorrectRejection
160.856	0.2	ToneStart	Standard	57	0	0	1	n/a	CorrectRejection
162.106	1	TrialStart	Standard	58	0	0	1	n/a	CorrectRejection
163.106	0.2	ToneStart	Standard	58	0	0	1	n/a	CorrectRejection
164.372	1	TrialStart	Standard	59	0	0	1	n/a	CorrectRejection
165.372	0.2	ToneStart	Standard	59	0	0	1	n/a	CorrectRejection
166.639	1	TrialStart	Oddball	60	1	0	0	n/a	Miss
167.639	0.2	ToneStart	Oddball	60	1	0	0	n/a	Miss
168.889	1	TrialStart	Standard	61	0	0	1	n/a	CorrectRejection
169.888	0.2	ToneStart	Standard	61	0	0	1	n/a	CorrectRejection
171.155	2	TrialStart	Standard	62	0	0	1	n/a	CorrectRejection
173.155	0.2	ToneStart	Standard	62	0	0	1	n/a	CorrectRejection
174.422	2	TrialStart	Standard	63	0	0	1	n/a	CorrectRejection
176.421	0.2	ToneStart	Standard	63	0	0	1	n/a	CorrectRejection
177.704	1	TrialStart	Standard	64	0	0	1	n/a	CorrectRejection
178.704	0.2	ToneStart	Standard	64	0	0	1	n/a	CorrectRejection
179.976	1	TrialStart	Novel	65	0	0	1	n/a	CorrectRejection
180.988	0.2	ToneStart	Novel	65	0	0	1	n/a	CorrectRejection
182.271	2	TrialStart	Standard	66	0	0	1	n/a	CorrectRejection
184.271	0.2	ToneStart	Standard	66	0	0	1	n/a	CorrectRejection
185.52	1	TrialStart	Standard	67	0	0	1	n/a	CorrectRejection
186.52	0.2	ToneStart	Standard	67	0	0	1	n/a	CorrectRejection
187.787	2	TrialStart	Oddball	68	1	0	0	n/a	Miss
189.787	0.2	ToneStart	Oddball	68	1	0	0	n/a	Miss
191.053	1	TrialStart	Standard	69	0	0	1	n/a	CorrectRejection
192.053	0.2	ToneStart	Standard	69	0	0	1	n/a	CorrectRejection
193.32	1	TrialStart	Standard	70	0	0	1	n/a	CorrectRejection
194.32	0.2	ToneStart	Standard	70	0	0	1	n/a	CorrectRejection
195.586	2	TrialStart	Standard	71	0	0	1	n/a	CorrectRejection
197.603	0.2	ToneStart	Standard	71	0	0	1	n/a	CorrectRejection
198.869	2	TrialStart	Standard	72	0	0	1	n/a	CorrectRejection
200.869	0.2	ToneStart	Standard	72	0	0	1	n/a	CorrectRejection
202.119	1	TrialStart	Standard	73	0	0	1	n/a	CorrectRejection
203.119	0.2	ToneStart	Standard	73	0	0	1	n/a	CorrectRejection
204.402	2	TrialStart	Standard	74	0	0	1	n/a	CorrectRejection
206.402	0.2	ToneStart	Standard	74	0	0	1	n/a	CorrectRejection
207.668	2	TrialStart	Oddball	75	1	0	0	n/a	Miss
209.668	0.2	ToneStart	Oddball	75	1	0	0	n/a	Miss
210.968	2	TrialStart	Standard	76	0	0	1	n/a	CorrectRejection
212.968	0.2	ToneStart	Standard	76	0	0	1	n/a	CorrectRejection
214.235	1	TrialStart	Standard	77	0	0	1	n/a	CorrectRejection
215.234	0.2	ToneStart	Standard	77	0	0	1	n/a	CorrectRejection
216.518	2	TrialStart	Standard	78	0	0	1	n/a	CorrectRejection
218.518	0.2	ToneStart	Standard	78	0	0	1	n/a	CorrectRejection
219.784	1	TrialStart	Novel	79	0	0	1	n/a	CorrectRejection
220.784	0.2	ToneStart	Novel	79	0	0	1	n/a	CorrectRejection
222.051	2	TrialStart	Standard	80	0	0	1	n/a	CorrectRejection
224.05	0.2	ToneStart	Standard	80	0	0	1	n/a	CorrectRejection
225.317	2	TrialStart	Standard	81	0	0	1	n/a	CorrectRejection
227.317	0.2	ToneStart	Standard	81	0	0	1	n/a	CorrectRejection
228.591	2	TrialStart	Oddball	82	1	0	0	n/a	Miss
230.6	0.2	ToneStart	Oddball	82	1	0	0	n/a	Miss
231.85	2	TrialStart	Standard	83	0	0	1	n/a	CorrectRejection
233.85	0.2	ToneStart	Standard	83	0	0	1	n/a	CorrectRejection
235.099	2	TrialStart	Standard	84	0	0	1	n/a	CorrectRejection
237.099	0.2	ToneStart	Standard	84	0	0	1	n/a	CorrectRejection
238.349	2	TrialStart	Novel	85	0	0	1	n/a	CorrectRejection
240.349	0.2	ToneStart	Novel	85	0	0	1	n/a	CorrectRejection
241.599	1	TrialStart	Standard	86	0	0	1	n/a	CorrectRejection
242.599	0.2	ToneStart	Standard	86	0	0	1	n/a	CorrectRejection
243.866	2	TrialStart	Standard	87	0	0	1	n/a	CorrectRejection
245.865	0.2	ToneStart	Standard	87	0	0	1	n/a	CorrectRejection
247.132	1	TrialStart	Standard	88	0	0	1	n/a	CorrectRejection
248.132	0.2	ToneStart	Standard	88	0	0	1	n/a	CorrectRejection
249.393	1	TrialStart	Standard	89	0	0	1	n/a	CorrectRejection
250.398	0.2	ToneStart	Standard	89	0	0	1	n/a	CorrectRejection
251.648	2	TrialStart	Standard	90	0	0	1	n/a	CorrectRejection
253.648	0.2	ToneStart	Standard	90	0	0	1	n/a	CorrectRejection
254.914	1	TrialStart	Standard	91	0	0	1	n/a	CorrectRejection
255.914	0.2	ToneStart	Standard	91	0	0	1	n/a	CorrectRejection
257.181	1	TrialStart	Standard	92	0	0	1	n/a	CorrectRejection
258.181	0.2	ToneStart	Standard	92	0	0	1	n/a	CorrectRejection
259.431	2	TrialStart	Standard	93	0	0	1	n/a	CorrectRejection
261.447	0.2	ToneStart	Standard	93	0	0	1	n/a	CorrectRejection
262.714	1	TrialStart	Novel	94	0	0	1	n/a	CorrectRejection
263.713	0.2	ToneStart	Novel	94	0	0	1	n/a	CorrectRejection
264.98	2	TrialStart	Oddball	95	1	0	0	n/a	Miss
266.98	0.2	ToneStart	Oddball	95	1	0	0	n/a	Miss
268.23	2	TrialStart	Standard	96	0	0	1	n/a	CorrectRejection
270.23	0.2	ToneStart	Standard	96	0	0	1	n/a	CorrectRejection
271.479	1	TrialStart	Standard	97	0	0	1	n/a	CorrectRejection
272.479	0.2	ToneStart	Standard	97	0	0	1	n/a	CorrectRejection
273.729	2	TrialStart	Standard	98	0	0	1	n/a	CorrectRejection
275.729	0.2	ToneStart	Standard	98	0	0	1	n/a	CorrectRejection
276.979	1	TrialStart	Standard	99	0	0	1	n/a	CorrectRejection
277.979	0.2	ToneStart	Standard	99	0	0	1	n/a	CorrectRejection
279.245	1	TrialStart	Standard	100	0	0	1	n/a	CorrectRejection
280.245	0.2	ToneStart	Standard	100	0	0	1	n/a	CorrectRejection
281.512	1	TrialStart	Standard	101	0	0	1	n/a	CorrectRejection
282.512	0.2	ToneStart	Standard	101	0	0	1	n/a	CorrectRejection
283.795	1	TrialStart	Standard	102	0	0	1	n/a	CorrectRejection
284.795	0.2	ToneStart	Standard	102	0	0	1	n/a	CorrectRejection
286.062	1	TrialStart	Standard	103	0	0	1	n/a	CorrectRejection
287.061	0.2	ToneStart	Standard	103	0	0	1	n/a	CorrectRejection
288.345	1	TrialStart	Standard	104	0	0	1	n/a	CorrectRejection
289.345	0.2	ToneStart	Standard	104	0	0	1	n/a	CorrectRejection
290.594	1	TrialStart	Oddball	105	1	0	0	n/a	Miss
291.594	0.2	ToneStart	Oddball	105	1	0	0	n/a	Miss
292.861	2	TrialStart	Standard	106	0	0	1	n/a	CorrectRejection
294.861	0.2	ToneStart	Standard	106	0	0	1	n/a	CorrectRejection
296.127	1	TrialStart	Standard	107	0	0	1	n/a	CorrectRejection
297.144	0.2	ToneStart	Standard	107	0	0	1	n/a	CorrectRejection
298.394	1	TrialStart	Standard	108	0	0	1	n/a	CorrectRejection
299.394	0.2	ToneStart	Standard	108	0	0	1	n/a	CorrectRejection
300.66	1	TrialStart	Standard	109	0	0	1	n/a	CorrectRejection
301.66	0.2	ToneStart	Standard	109	0	0	1	n/a	CorrectRejection
302.943	2	TrialStart	Standard	110	0	0	1	n/a	CorrectRejection
304.943	0.2	ToneStart	Standard	110	0	0	1	n/a	CorrectRejection
306.193	1	TrialStart	Oddball	111	1	0	0	n/a	Miss
307.193	0.2	ToneStart	Oddball	111	1	0	0	n/a	Miss
308.46	1	TrialStart	Standard	112	0	0	1	n/a	CorrectRejection
309.459	0.2	ToneStart	Standard	112	0	0	1	n/a	CorrectRejection
310.743	2	TrialStart	Standard	113	0	0	1	n/a	CorrectRejection
312.743	0.2	ToneStart	Standard	113	0	0	1	n/a	CorrectRejection
314.009	2	TrialStart	Standard	114	0	0	1	n/a	CorrectRejection
316.009	0.2	ToneStart	Standard	114	0	0	1	n/a	CorrectRejection
317.292	2	TrialStart	Standard	115	0	0	1	n/a	CorrectRejection
319.292	0.2	ToneStart	Standard	115	0	0	1	n/a	CorrectRejection
320.542	1	TrialStart	Standard	116	0	0	1	n/a	CorrectRejection
321.542	0.2	ToneStart	Standard	116	0	0	1	n/a	CorrectRejection
322.792	2	TrialStart	Standard	117	0	0	1	n/a	CorrectRejection
324.791	0.2	ToneStart	Standard	117	0	0	1	n/a	CorrectRejection
326.058	1	TrialStart	Standard	118	0	0	1	n/a	CorrectRejection
327.058	0.2	ToneStart	Standard	118	0	0	1	n/a	CorrectRejection
328.324	1	TrialStart	Standard	119	0	0	1	n/a	CorrectRejection
329.324	0.2	ToneStart	Standard	119	0	0	1	n/a	CorrectRejection
330.574	1	TrialStart	Standard	120	0	0	1	n/a	CorrectRejection
331.574	0.2	ToneStart	Standard	120	0	0	1	n/a	CorrectRejection
