onset	duration	TrialEvent	ToneLabel	Trial	CRESP	RESP	ACC	RT	Code
0.04	2	TrialStart	Standard	1	0	0	1	n/a	CorrectRejection
2.041	0.2	ToneStart	Standard	1	0	0	1	n/a	CorrectRejection
3.29	2	TrialStart	Standard	2	0	1	0	1134	FalseAlarm
5.29	0.2	ToneStart	Standard	2	0	1	0	1134	FalseAlarm
6.54	2	TrialStart	Standard	3	0	1	0	1545	FalseAlarm
8.539	0.2	ToneStart	Standard	3	0	1	0	1545	FalseAlarm
9.789	2	TrialStart	Novel	4	0	0	1	n/a	CorrectRejection
11.789	0.2	ToneStart	Novel	4	0	0	1	n/a	CorrectRejection
13.039	1	TrialStart	Standard	5	0	0	1	n/a	CorrectRejection
14.039	0.2	ToneStart	Standard	5	0	0	1	n/a	CorrectRejection
15.289	1	TrialStart	Standard	6	0	0	1	n/a	CorrectRejection
16.289	0.2	ToneStart	Standard	6	0	0	1	n/a	CorrectRejection
17.538	2	TrialStart	Standard	7	0	0	1	n/a	CorrectRejection
19.538	0.2	ToneStart	Standard	7	0	0	1	n/a	CorrectRejection
20.788	1	TrialStart	Standard	8	0	0	1	n/a	CorrectRejection
21.788	0.2	ToneStart	Standard	8	0	0	1	n/a	CorrectRejection
23.038	1	TrialStart	Standard	9	0	0	1	n/a	CorrectRejection
24.038	0.2	ToneStart	Standard	9	0	0	1	n/a	CorrectRejection
25.288	1	TrialStart	Standard	10	0	1	0	1197	FalseAlarm
26.288	0.2	ToneStart	Standard	10	0	1	0	1197	FalseAlarm
27.537	1	TrialStart	Oddball	11	1	0	0	n/a	Miss
28.537	0.2	ToneStart	Oddball	11	1	0	0	n/a	Miss
29.787	1	TrialStart	Standard	12	0	0	1	n/a	CorrectRejection
30.787	0.2	ToneStart	Standard	12	0	0	1	n/a	CorrectRejection
32.037	2	TrialStart	Standard	13	0	0	1	n/a	CorrectRejection
34.037	0.2	ToneStart	Standard	13	0	0	1	n/a	CorrectRejection
35.287	1	TrialStart	Standard	14	0	0	1	n/a	CorrectRejection
36.286	0.2	ToneStart	Standard	14	0	0	1	n/a	CorrectRejection
37.536	2	TrialStart	Standard	15	0	0	1	n/a	CorrectRejection
39.536	0.2	ToneStart	Standard	15	0	0	1	n/a	CorrectRejection
40.786	2	TrialStart	Standard	16	0	0	1	n/a	CorrectRejection
42.787	0.2	ToneStart	Standard	16	0	0	1	n/a	CorrectRejection
44.036	1	TrialStart	Novel	17	0	0	1	n/a	CorrectRejection
45.036	0.2	ToneStart	Novel	17	0	0	1	n/a	CorrectRejection
46.285	2	TrialStart	Standard	18	0	1	0	994	FalseAlarm
48.285	0.2	ToneStart	Standard	18	0	1	0	994	FalseAlarm
49.535	2	TrialStart	Standard	19	0	1	0	827	FalseAlarm
51.535	0.2	ToneStart	Standard	19	0	1	0	827	FalseAlarm
52.785	1	TrialStart	Standard	20	0	1	0	515	FalseAlarm
53.785	0.2	ToneStart	Standard	20	0	1	0	515	FalseAlarm
55.034	2	TrialStart	Standard	21	0	1	0	816	FalseAlarm
57.034	0.2	ToneStart	Standard	21	0	1	0	816	FalseAlarm
58.284	2	TrialStart	Standard	22	0	1	0	671	FalseAlarm
60.284	0.2	ToneStart	Standard	22	0	1	0	671	FalseAlarm
61.534	1	TrialStart	Novel	23	0	0	1	n/a	CorrectRejection
62.535	0.2	ToneStart	Novel	23	0	0	1	n/a	CorrectRejection
63.784	2	TrialStart	Oddball	24	1	0	0	n/a	Miss
65.783	0.2	ToneStart	Oddball	24	1	0	0	n/a	Miss
67.033	2	TrialStart	Standard	25	0	1	0	824	FalseAlarm
69.033	0.2	ToneStart	Standard	25	0	1	0	824	FalseAlarm
70.283	2	TrialStart	Standard	26	0	1	0	819	FalseAlarm
72.283	0.2	ToneStart	Standard	26	0	1	0	819	FalseAlarm
73.532	1	TrialStart	Standard	27	0	1	0	644	FalseAlarm
74.532	0.2	ToneStart	Standard	27	0	1	0	644	FalseAlarm
75.782	2	TrialStart	Standard	28	0	1	0	729	FalseAlarm
77.782	0.2	ToneStart	Standard	28	0	1	0	729	FalseAlarm
79.032	2	TrialStart	Oddball	29	1	0	0	n/a	Miss
81.032	0.2	ToneStart	Oddball	29	1	0	0	n/a	Miss
82.282	1	TrialStart	Novel	30	0	0	1	n/a	CorrectRejection
83.281	0.2	ToneStart	Novel	30	0	0	1	n/a	CorrectRejection
84.531	1	TrialStart	Standard	31	0	1	0	682	FalseAlarm
85.531	0.2	ToneStart	Standard	31	0	1	0	682	FalseAlarm
86.781	2	TrialStart	Standard	32	0	1	0	580	FalseAlarm
88.781	0.2	ToneStart	Standard	32	0	1	0	580	FalseAlarm
90.031	1	TrialStart	Novel	33	0	0	1	n/a	CorrectRejection
91.031	0.2	ToneStart	Novel	33	0	0	1	n/a	CorrectRejection
92.264	2	TrialStart	Standard	34	0	1	0	744	FalseAlarm
94.264	0.2	ToneStart	Standard	34	0	1	0	744	FalseAlarm
95.497	2	TrialStart	Standard	35	0	1	0	625	FalseAlarm
97.497	0.2	ToneStart	Standard	35	0	1	0	625	FalseAlarm
98.746	1	TrialStart	Standard	36	0	1	0	519	FalseAlarm
99.746	0.2	ToneStart	Standard	36	0	1	0	519	FalseAlarm
100.98	1	TrialStart	Standard	37	0	1	0	548	FalseAlarm
101.979	0.2	ToneStart	Standard	37	0	1	0	548	FalseAlarm
103.229	2	TrialStart	Standard	38	0	1	0	580	FalseAlarm
105.229	0.2	ToneStart	Standard	38	0	1	0	580	FalseAlarm
106.462	2	TrialStart	Oddball	39	1	0	0	n/a	Miss
108.462	0.2	ToneStart	Oddball	39	1	0	0	n/a	Miss
109.712	2	TrialStart	Standard	40	0	1	0	669	FalseAlarm
111.712	0.2	ToneStart	Standard	40	0	1	0	669	FalseAlarm
112.945	2	TrialStart	Standard	41	0	1	0	589	FalseAlarm
114.945	0.2	ToneStart	Standard	41	0	1	0	589	FalseAlarm
116.178	1	TrialStart	Standard	42	0	1	0	486	FalseAlarm
117.178	0.2	ToneStart	Standard	42	0	1	0	486	FalseAlarm
118.411	1	TrialStart	Standard	43	0	1	0	646	FalseAlarm
119.411	0.2	ToneStart	Standard	43	0	1	0	646	FalseAlarm
120.661	1	TrialStart	Novel	44	0	0	1	n/a	CorrectRejection
121.661	0.2	ToneStart	Novel	44	0	0	1	n/a	CorrectRejection
122.911	1	TrialStart	Standard	45	0	1	0	757	FalseAlarm
123.91	0.2	ToneStart	Standard	45	0	1	0	757	FalseAlarm
125.144	2	TrialStart	Standard	46	0	1	0	682	FalseAlarm
127.143	0.2	ToneStart	Standard	46	0	1	0	682	FalseAlarm
128.377	2	TrialStart	Standard	47	0	1	0	584	FalseAlarm
130.376	0.2	ToneStart	Standard	47	0	1	0	584	FalseAlarm
131.61	1	TrialStart	Standard	48	0	1	0	605	FalseAlarm
132.61	0.2	ToneStart	Standard	48	0	1	0	605	FalseAlarm
133.843	2	TrialStart	Oddball	49	1	0	0	n/a	Miss
135.842	0.2	ToneStart	Oddball	49	1	0	0	n/a	Miss
137.076	2	TrialStart	Standard	50	0	1	0	702	FalseAlarm
139.075	0.2	ToneStart	Standard	50	0	1	0	702	FalseAlarm
140.309	2	TrialStart	Standard	51	0	1	0	733	FalseAlarm
142.308	0.2	ToneStart	Standard	51	0	1	0	733	FalseAlarm
143.558	2	TrialStart	Standard	52	0	1	0	618	FalseAlarm
145.558	0.2	ToneStart	Standard	52	0	1	0	618	FalseAlarm
146.791	2	TrialStart	Novel	53	0	0	1	n/a	CorrectRejection
148.791	0.2	ToneStart	Novel	53	0	0	1	n/a	CorrectRejection
150.024	2	TrialStart	Standard	54	0	1	0	796	FalseAlarm
152.024	0.2	ToneStart	Standard	54	0	1	0	796	FalseAlarm
153.257	1	TrialStart	Standard	55	0	1	0	1049	FalseAlarm
154.257	0.2	ToneStart	Standard	55	0	1	0	1049	FalseAlarm
155.49	1	TrialStart	Novel	56	0	0	1	n/a	CorrectRejection
156.49	0.2	ToneStart	Novel	56	0	0	1	n/a	CorrectRejection
157.74	2	TrialStart	Standard	57	0	1	0	883	FalseAlarm
159.74	0.2	ToneStart	Standard	57	0	1	0	883	FalseAlarm
160.99	1	TrialStart	Standard	58	0	1	0	728	FalseAlarm
161.99	0.2	ToneStart	Standard	58	0	1	0	728	FalseAlarm
163.24	1	TrialStart	Standard	59	0	1	0	553	FalseAlarm
164.239	0.2	ToneStart	Standard	59	0	1	0	553	FalseAlarm
165.473	1	TrialStart	Oddball	60	1	0	0	n/a	Miss
166.473	0.2	ToneStart	Oddball	60	1	0	0	n/a	Miss
167.706	1	TrialStart	Standard	61	0	1	0	924	FalseAlarm
168.706	0.2	ToneStart	Standard	61	0	1	0	924	FalseAlarm
169.939	2	TrialStart	Standard	62	0	1	0	648	FalseAlarm
171.939	0.2	ToneStart	Standard	62	0	1	0	648	FalseAlarm
173.172	2	TrialStart	Standard	63	0	1	0	622	FalseAlarm
175.172	0.2	ToneStart	Standard	63	0	1	0	622	FalseAlarm
176.421	1	TrialStart	Standard	64	0	1	0	546	FalseAlarm
177.421	0.2	ToneStart	Standard	64	0	1	0	546	FalseAlarm
178.671	1	TrialStart	Novel	65	0	0	1	n/a	CorrectRejection
179.671	0.2	ToneStart	Novel	65	0	0	1	n/a	CorrectRejection
180.921	2	TrialStart	Standard	66	0	1	0	750	FalseAlarm
182.921	0.2	ToneStart	Standard	66	0	1	0	750	FalseAlarm
184.154	1	TrialStart	Standard	67	0	1	0	569	FalseAlarm
185.154	0.2	ToneStart	Standard	67	0	1	0	569	FalseAlarm
186.387	2	TrialStart	Oddball	68	1	0	0	n/a	Miss
188.387	0.2	ToneStart	Oddball	68	1	0	0	n/a	Miss
189.62	1	TrialStart	Standard	69	0	1	0	789	FalseAlarm
190.62	0.2	ToneStart	Standard	69	0	1	0	789	FalseAlarm
191.87	1	TrialStart	Standard	70	0	1	0	699	FalseAlarm
192.87	0.2	ToneStart	Standard	70	0	1	0	699	FalseAlarm
194.12	2	TrialStart	Standard	71	0	1	0	568	FalseAlarm
196.119	0.2	ToneStart	Standard	71	0	1	0	568	FalseAlarm
197.369	2	TrialStart	Standard	72	0	1	0	673	FalseAlarm
199.369	0.2	ToneStart	Standard	72	0	1	0	673	FalseAlarm
200.619	1	TrialStart	Standard	73	0	1	0	615	FalseAlarm
201.619	0.2	ToneStart	Standard	73	0	1	0	615	FalseAlarm
202.852	2	TrialStart	Standard	74	0	1	0	603	FalseAlarm
204.852	0.2	ToneStart	Standard	74	0	1	0	603	FalseAlarm
206.085	2	TrialStart	Oddball	75	1	0	0	n/a	Miss
208.085	0.2	ToneStart	Oddball	75	1	0	0	n/a	Miss
209.318	2	TrialStart	Standard	76	0	1	0	684	FalseAlarm
211.318	0.2	ToneStart	Standard	76	0	1	0	684	FalseAlarm
212.551	1	TrialStart	Standard	77	0	1	0	660	FalseAlarm
213.551	0.2	ToneStart	Standard	77	0	1	0	660	FalseAlarm
214.784	2	TrialStart	Standard	78	0	1	0	561	FalseAlarm
216.784	0.2	ToneStart	Standard	78	0	1	0	561	FalseAlarm
218.017	1	TrialStart	Novel	79	0	0	1	n/a	CorrectRejection
219.017	0.2	ToneStart	Novel	79	0	0	1	n/a	CorrectRejection
220.267	2	TrialStart	Standard	80	0	1	0	1276	FalseAlarm
222.267	0.2	ToneStart	Standard	80	0	1	0	1276	FalseAlarm
223.5	2	TrialStart	Standard	81	0	1	0	643	FalseAlarm
225.5	0.2	ToneStart	Standard	81	0	1	0	643	FalseAlarm
226.733	2	TrialStart	Oddball	82	1	0	0	n/a	Miss
228.733	0.2	ToneStart	Oddball	82	1	0	0	n/a	Miss
229.966	2	TrialStart	Standard	83	0	1	0	910	FalseAlarm
231.966	0.2	ToneStart	Standard	83	0	1	0	910	FalseAlarm
233.199	2	TrialStart	Standard	84	0	1	0	814	FalseAlarm
235.199	0.2	ToneStart	Standard	84	0	1	0	814	FalseAlarm
236.432	2	TrialStart	Novel	85	0	0	1	n/a	CorrectRejection
238.432	0.2	ToneStart	Novel	85	0	0	1	n/a	CorrectRejection
239.681	1	TrialStart	Standard	86	0	1	0	959	FalseAlarm
240.681	0.2	ToneStart	Standard	86	0	1	0	959	FalseAlarm
241.931	2	TrialStart	Standard	87	0	1	0	759	FalseAlarm
243.931	0.2	ToneStart	Standard	87	0	1	0	759	FalseAlarm
245.164	1	TrialStart	Standard	88	0	1	0	719	FalseAlarm
246.164	0.2	ToneStart	Standard	88	0	1	0	719	FalseAlarm
247.414	1	TrialStart	Standard	89	0	1	0	698	FalseAlarm
248.414	0.2	ToneStart	Standard	89	0	1	0	698	FalseAlarm
249.647	2	TrialStart	Standard	90	0	1	0	635	FalseAlarm
251.647	0.2	ToneStart	Standard	90	0	1	0	635	FalseAlarm
252.88	1	TrialStart	Standard	91	0	1	0	627	FalseAlarm
253.88	0.2	ToneStart	Standard	91	0	1	0	627	FalseAlarm
255.13	1	TrialStart	Standard	92	0	1	0	666	FalseAlarm
256.13	0.2	ToneStart	Standard	92	0	1	0	666	FalseAlarm
257.363	2	TrialStart	Standard	93	0	1	0	788	FalseAlarm
259.363	0.2	ToneStart	Standard	93	0	1	0	788	FalseAlarm
260.596	1	TrialStart	Novel	94	0	0	1	n/a	CorrectRejection
261.596	0.2	ToneStart	Novel	94	0	0	1	n/a	CorrectRejection
262.829	2	TrialStart	Oddball	95	1	0	0	n/a	Miss
264.829	0.2	ToneStart	Oddball	95	1	0	0	n/a	Miss
266.062	2	TrialStart	Standard	96	0	1	0	1051	FalseAlarm
268.062	0.2	ToneStart	Standard	96	0	1	0	1051	FalseAlarm
269.295	1	TrialStart	Standard	97	0	1	0	704	FalseAlarm
270.295	0.2	ToneStart	Standard	97	0	1	0	704	FalseAlarm
271.545	2	TrialStart	Standard	98	0	1	0	896	FalseAlarm
273.544	0.2	ToneStart	Standard	98	0	1	0	896	FalseAlarm
274.778	1	TrialStart	Standard	99	0	1	0	693	FalseAlarm
275.778	0.2	ToneStart	Standard	99	0	1	0	693	FalseAlarm
277.011	1	TrialStart	Standard	100	0	1	0	646	FalseAlarm
278.011	0.2	ToneStart	Standard	100	0	1	0	646	FalseAlarm
279.244	1	TrialStart	Standard	101	0	1	0	703	FalseAlarm
280.244	0.2	ToneStart	Standard	101	0	1	0	703	FalseAlarm
281.477	1	TrialStart	Standard	102	0	1	0	639	FalseAlarm
282.477	0.2	ToneStart	Standard	102	0	1	0	639	FalseAlarm
283.71	1	TrialStart	Standard	103	0	1	0	601	FalseAlarm
284.71	0.2	ToneStart	Standard	103	0	1	0	601	FalseAlarm
285.96	1	TrialStart	Standard	104	0	1	0	656	FalseAlarm
286.96	0.2	ToneStart	Standard	104	0	1	0	656	FalseAlarm
288.193	1	TrialStart	Oddball	105	1	0	0	n/a	Miss
289.193	0.2	ToneStart	Oddball	105	1	0	0	n/a	Miss
290.426	2	TrialStart	Standard	106	0	1	0	711	FalseAlarm
292.426	0.2	ToneStart	Standard	106	0	1	0	711	FalseAlarm
293.659	1	TrialStart	Standard	107	0	1	0	562	FalseAlarm
294.659	0.2	ToneStart	Standard	107	0	1	0	562	FalseAlarm
295.909	1	TrialStart	Standard	108	0	1	0	493	FalseAlarm
296.909	0.2	ToneStart	Standard	108	0	1	0	493	FalseAlarm
298.158	1	TrialStart	Standard	109	0	1	0	578	FalseAlarm
299.158	0.2	ToneStart	Standard	109	0	1	0	578	FalseAlarm
300.408	2	TrialStart	Standard	110	0	1	0	734	FalseAlarm
302.408	0.2	ToneStart	Standard	110	0	1	0	734	FalseAlarm
303.658	1	TrialStart	Oddball	111	1	0	0	n/a	Miss
304.658	0.2	ToneStart	Oddball	111	1	0	0	n/a	Miss
305.908	1	TrialStart	Standard	112	0	1	0	638	FalseAlarm
306.908	0.2	ToneStart	Standard	112	0	1	0	638	FalseAlarm
308.141	2	TrialStart	Standard	113	0	1	0	577	FalseAlarm
310.141	0.2	ToneStart	Standard	113	0	1	0	577	FalseAlarm
311.39	2	TrialStart	Standard	114	0	1	0	721	FalseAlarm
313.39	0.2	ToneStart	Standard	114	0	1	0	721	FalseAlarm
314.623	2	TrialStart	Standard	115	0	1	0	628	FalseAlarm
316.623	0.2	ToneStart	Standard	115	0	1	0	628	FalseAlarm
317.856	1	TrialStart	Standard	116	0	1	0	616	FalseAlarm
318.856	0.2	ToneStart	Standard	116	0	1	0	616	FalseAlarm
320.089	2	TrialStart	Standard	117	0	1	0	542	FalseAlarm
322.089	0.2	ToneStart	Standard	117	0	1	0	542	FalseAlarm
323.322	1	TrialStart	Standard	118	0	1	0	575	FalseAlarm
324.322	0.2	ToneStart	Standard	118	0	1	0	575	FalseAlarm
325.556	1	TrialStart	Standard	119	0	1	0	524	FalseAlarm
326.555	0.2	ToneStart	Standard	119	0	1	0	524	FalseAlarm
327.789	1	TrialStart	Standard	120	0	1	0	441	FalseAlarm
328.789	0.2	ToneStart	Standard	120	0	1	0	441	FalseAlarm
