onset	duration	TrialEvent	ToneLabel	Trial	CRESP	RESP	ACC	RT	Code
0.048	2	TrialStart	Standard	1	0	0	1	n/a	CorrectRejection
2.048	0.2	ToneStart	Standard	1	0	0	1	n/a	CorrectRejection
3.331	2	TrialStart	Standard	2	0	0	1	n/a	CorrectRejection
5.331	0.2	ToneStart	Standard	2	0	0	1	n/a	CorrectRejection
6.597	2	TrialStart	Standard	3	0	0	1	n/a	CorrectRejection
8.598	0.2	ToneStart	Standard	3	0	0	1	n/a	CorrectRejection
9.88	2	TrialStart	Novel	4	0	0	1	n/a	CorrectRejection
11.88	0.2	ToneStart	Novel	4	0	0	1	n/a	CorrectRejection
13.147	1	TrialStart	Standard	5	0	0	1	n/a	CorrectRejection
14.163	0.2	ToneStart	Standard	5	0	0	1	n/a	CorrectRejection
15.43	1	TrialStart	Standard	6	0	0	1	n/a	CorrectRejection
16.431	0.2	ToneStart	Standard	6	0	0	1	n/a	CorrectRejection
17.697	2	TrialStart	Standard	7	0	0	1	n/a	CorrectRejection
19.696	0.2	ToneStart	Standard	7	0	0	1	n/a	CorrectRejection
20.963	1	TrialStart	Standard	8	0	0	1	n/a	CorrectRejection
21.963	0.2	ToneStart	Standard	8	0	0	1	n/a	CorrectRejection
23.229	1	TrialStart	Standard	9	0	0	1	n/a	CorrectRejection
24.246	0.2	ToneStart	Standard	9	0	0	1	n/a	CorrectRejection
25.512	1	TrialStart	Standard	10	0	0	1	n/a	CorrectRejection
26.529	0.2	ToneStart	Standard	10	0	0	1	n/a	CorrectRejection
27.795	1	TrialStart	Oddball	11	1	1	1	493	Hit
28.795	0.2	ToneStart	Oddball	11	1	1	1	493	Hit
30.062	1	TrialStart	Standard	12	0	0	1	n/a	CorrectRejection
31.078	0.2	ToneStart	Standard	12	0	0	1	n/a	CorrectRejection
32.345	2	TrialStart	Standard	13	0	0	1	n/a	CorrectRejection
34.345	0.2	ToneStart	Standard	13	0	0	1	n/a	CorrectRejection
35.611	1	TrialStart	Standard	14	0	0	1	n/a	CorrectRejection
36.644	0.2	ToneStart	Standard	14	0	0	1	n/a	CorrectRejection
37.911	2	TrialStart	Standard	15	0	0	1	n/a	CorrectRejection
39.911	0.2	ToneStart	Standard	15	0	0	1	n/a	CorrectRejection
41.211	2	TrialStart	Standard	16	0	0	1	n/a	CorrectRejection
43.211	0.2	ToneStart	Standard	16	0	0	1	n/a	CorrectRejection
44.477	1	TrialStart	Novel	17	0	0	1	n/a	CorrectRejection
45.494	0.2	ToneStart	Novel	17	0	0	1	n/a	CorrectRejection
46.76	2	TrialStart	Standard	18	0	0	1	n/a	CorrectRejection
48.76	0.2	ToneStart	Standard	18	0	0	1	n/a	CorrectRejection
50.027	2	TrialStart	Standard	19	0	0	1	n/a	CorrectRejection
52.026	0.2	ToneStart	Standard	19	0	0	1	n/a	CorrectRejection
53.293	1	TrialStart	Standard	20	0	0	1	n/a	CorrectRejection
54.293	0.2	ToneStart	Standard	20	0	0	1	n/a	CorrectRejection
55.559	2	TrialStart	Standard	21	0	0	1	n/a	CorrectRejection
57.559	0.2	ToneStart	Standard	21	0	0	1	n/a	CorrectRejection
58.826	2	TrialStart	Standard	22	0	0	1	n/a	CorrectRejection
60.827	0.2	ToneStart	Standard	22	0	0	1	n/a	CorrectRejection
62.092	1	TrialStart	Novel	23	0	0	1	n/a	CorrectRejection
63.123	0.2	ToneStart	Novel	23	0	0	1	n/a	CorrectRejection
64.409	2	TrialStart	Oddball	24	1	1	1	465	Hit
66.408	0.2	ToneStart	Oddball	24	1	1	1	465	Hit
67.675	2	TrialStart	Standard	25	0	0	1	n/a	CorrectRejection
69.675	0.2	ToneStart	Standard	25	0	0	1	n/a	CorrectRejection
70.941	2	TrialStart	Standard	26	0	0	1	n/a	CorrectRejection
72.942	0.2	ToneStart	Standard	26	0	0	1	n/a	CorrectRejection
74.208	1	TrialStart	Standard	27	0	0	1	n/a	CorrectRejection
75.209	0.2	ToneStart	Standard	27	0	0	1	n/a	CorrectRejection
76.458	2	TrialStart	Standard	28	0	0	1	n/a	CorrectRejection
78.457	0.2	ToneStart	Standard	28	0	0	1	n/a	CorrectRejection
79.724	2	TrialStart	Oddball	29	1	1	1	397	Hit
81.724	0.2	ToneStart	Oddball	29	1	1	1	397	Hit
83.007	1	TrialStart	Novel	30	0	0	1	n/a	CorrectRejection
84.024	0.2	ToneStart	Novel	30	0	0	1	n/a	CorrectRejection
85.291	1	TrialStart	Standard	31	0	0	1	n/a	CorrectRejection
86.376	0.2	ToneStart	Standard	31	0	0	1	n/a	CorrectRejection
87.64	2	TrialStart	Standard	32	0	0	1	n/a	CorrectRejection
89.64	0.2	ToneStart	Standard	32	0	0	1	n/a	CorrectRejection
90.89	1	TrialStart	Novel	33	0	0	1	n/a	CorrectRejection
91.89	0.2	ToneStart	Novel	33	0	0	1	n/a	CorrectRejection
93.14	2	TrialStart	Standard	34	0	0	1	n/a	CorrectRejection
95.139	0.2	ToneStart	Standard	34	0	0	1	n/a	CorrectRejection
96.389	2	TrialStart	Standard	35	0	0	1	n/a	CorrectRejection
98.389	0.2	ToneStart	Standard	35	0	0	1	n/a	CorrectRejection
99.672	1	TrialStart	Standard	36	0	0	1	n/a	CorrectRejection
100.672	0.2	ToneStart	Standard	36	0	0	1	n/a	CorrectRejection
101.922	1	TrialStart	Standard	37	0	0	1	n/a	CorrectRejection
102.939	0.2	ToneStart	Standard	37	0	0	1	n/a	CorrectRejection
104.205	2	TrialStart	Standard	38	0	0	1	n/a	CorrectRejection
106.205	0.2	ToneStart	Standard	38	0	0	1	n/a	CorrectRejection
107.455	2	TrialStart	Oddball	39	1	1	1	446	Hit
109.455	0.2	ToneStart	Oddball	39	1	1	1	446	Hit
110.705	2	TrialStart	Standard	40	0	0	1	n/a	CorrectRejection
112.704	0.2	ToneStart	Standard	40	0	0	1	n/a	CorrectRejection
113.971	2	TrialStart	Standard	41	0	0	1	n/a	CorrectRejection
115.971	0.2	ToneStart	Standard	41	0	0	1	n/a	CorrectRejection
117.241	1	TrialStart	Standard	42	0	0	1	n/a	CorrectRejection
118.237	0.2	ToneStart	Standard	42	0	0	1	n/a	CorrectRejection
119.487	1	TrialStart	Standard	43	0	0	1	n/a	CorrectRejection
120.504	0.2	ToneStart	Standard	43	0	0	1	n/a	CorrectRejection
121.754	1	TrialStart	Novel	44	0	0	1	n/a	CorrectRejection
122.77	0.2	ToneStart	Novel	44	0	0	1	n/a	CorrectRejection
124.039	1	TrialStart	Standard	45	0	0	1	n/a	CorrectRejection
125.037	0.2	ToneStart	Standard	45	0	0	1	n/a	CorrectRejection
126.287	2	TrialStart	Standard	46	0	0	1	n/a	CorrectRejection
128.286	0.2	ToneStart	Standard	46	0	0	1	n/a	CorrectRejection
129.536	2	TrialStart	Standard	47	0	0	1	n/a	CorrectRejection
131.536	0.2	ToneStart	Standard	47	0	0	1	n/a	CorrectRejection
132.786	1	TrialStart	Standard	48	0	0	1	n/a	CorrectRejection
133.803	0.2	ToneStart	Standard	48	0	0	1	n/a	CorrectRejection
135.052	2	TrialStart	Oddball	49	1	1	1	417	Hit
137.052	0.2	ToneStart	Oddball	49	1	1	1	417	Hit
138.302	2	TrialStart	Standard	50	0	0	1	n/a	CorrectRejection
140.302	0.2	ToneStart	Standard	50	0	0	1	n/a	CorrectRejection
141.552	2	TrialStart	Standard	51	0	0	1	n/a	CorrectRejection
143.552	0.2	ToneStart	Standard	51	0	0	1	n/a	CorrectRejection
144.802	2	TrialStart	Standard	52	0	0	1	n/a	CorrectRejection
146.801	0.2	ToneStart	Standard	52	0	0	1	n/a	CorrectRejection
148.051	2	TrialStart	Novel	53	0	0	1	n/a	CorrectRejection
150.051	0.2	ToneStart	Novel	53	0	0	1	n/a	CorrectRejection
151.301	2	TrialStart	Standard	54	0	0	1	n/a	CorrectRejection
153.301	0.2	ToneStart	Standard	54	0	0	1	n/a	CorrectRejection
154.584	1	TrialStart	Standard	55	0	0	1	n/a	CorrectRejection
155.584	0.2	ToneStart	Standard	55	0	0	1	n/a	CorrectRejection
156.834	1	TrialStart	Novel	56	0	0	1	n/a	CorrectRejection
157.894	0.2	ToneStart	Novel	56	0	0	1	n/a	CorrectRejection
159.174	2	TrialStart	Standard	57	0	0	1	n/a	CorrectRejection
161.201	0.2	ToneStart	Standard	57	0	0	1	n/a	CorrectRejection
162.467	1	TrialStart	Standard	58	0	0	1	n/a	CorrectRejection
163.467	0.2	ToneStart	Standard	58	0	0	1	n/a	CorrectRejection
164.733	1	TrialStart	Standard	59	0	0	1	n/a	CorrectRejection
165.75	0.2	ToneStart	Standard	59	0	0	1	n/a	CorrectRejection
167.016	1	TrialStart	Oddball	60	1	1	1	604	Hit
168.016	0.2	ToneStart	Oddball	60	1	1	1	604	Hit
169.285	1	TrialStart	Standard	61	0	0	1	n/a	CorrectRejection
170.283	0.2	ToneStart	Standard	61	0	0	1	n/a	CorrectRejection
171.533	2	TrialStart	Standard	62	0	0	1	n/a	CorrectRejection
173.532	0.2	ToneStart	Standard	62	0	0	1	n/a	CorrectRejection
174.799	2	TrialStart	Standard	63	0	0	1	n/a	CorrectRejection
176.799	0.2	ToneStart	Standard	63	0	0	1	n/a	CorrectRejection
178.049	1	TrialStart	Standard	64	0	0	1	n/a	CorrectRejection
179.049	0.2	ToneStart	Standard	64	0	0	1	n/a	CorrectRejection
180.298	1	TrialStart	Novel	65	0	0	1	n/a	CorrectRejection
181.299	0.2	ToneStart	Novel	65	0	0	1	n/a	CorrectRejection
182.565	2	TrialStart	Standard	66	0	0	1	n/a	CorrectRejection
184.565	0.2	ToneStart	Standard	66	0	0	1	n/a	CorrectRejection
185.84	1	TrialStart	Standard	67	0	0	1	n/a	CorrectRejection
186.848	0.2	ToneStart	Standard	67	0	0	1	n/a	CorrectRejection
188.114	2	TrialStart	Oddball	68	1	1	1	450	Hit
190.114	0.2	ToneStart	Oddball	68	1	1	1	450	Hit
191.364	1	TrialStart	Standard	69	0	0	1	n/a	CorrectRejection
192.365	0.2	ToneStart	Standard	69	0	0	1	n/a	CorrectRejection
193.636	1	TrialStart	Standard	70	0	0	1	n/a	CorrectRejection
194.647	0.2	ToneStart	Standard	70	0	0	1	n/a	CorrectRejection
195.914	2	TrialStart	Standard	71	0	0	1	n/a	CorrectRejection
197.914	0.2	ToneStart	Standard	71	0	0	1	n/a	CorrectRejection
199.181	2	TrialStart	Standard	72	0	0	1	n/a	CorrectRejection
201.18	0.2	ToneStart	Standard	72	0	0	1	n/a	CorrectRejection
202.446	1	TrialStart	Standard	73	0	0	1	n/a	CorrectRejection
203.446	0.2	ToneStart	Standard	73	0	0	1	n/a	CorrectRejection
204.696	2	TrialStart	Standard	74	0	0	1	n/a	CorrectRejection
206.696	0.2	ToneStart	Standard	74	0	0	1	n/a	CorrectRejection
207.946	2	TrialStart	Oddball	75	1	1	1	454	Hit
209.946	0.2	ToneStart	Oddball	75	1	1	1	454	Hit
211.196	2	TrialStart	Standard	76	0	0	1	n/a	CorrectRejection
213.195	0.2	ToneStart	Standard	76	0	0	1	n/a	CorrectRejection
214.445	1	TrialStart	Standard	77	0	0	1	n/a	CorrectRejection
215.446	0.2	ToneStart	Standard	77	0	0	1	n/a	CorrectRejection
216.716	2	TrialStart	Standard	78	0	0	1	n/a	CorrectRejection
218.712	0.2	ToneStart	Standard	78	0	0	1	n/a	CorrectRejection
219.978	1	TrialStart	Novel	79	0	0	1	n/a	CorrectRejection
220.98	0.2	ToneStart	Novel	79	0	0	1	n/a	CorrectRejection
222.228	2	TrialStart	Standard	80	0	0	1	n/a	CorrectRejection
224.228	0.2	ToneStart	Standard	80	0	0	1	n/a	CorrectRejection
225.478	2	TrialStart	Standard	81	0	0	1	n/a	CorrectRejection
227.478	0.2	ToneStart	Standard	81	0	0	1	n/a	CorrectRejection
228.727	2	TrialStart	Oddball	82	1	1	1	459	Hit
230.727	0.2	ToneStart	Oddball	82	1	1	1	459	Hit
231.977	2	TrialStart	Standard	83	0	0	1	n/a	CorrectRejection
233.977	0.2	ToneStart	Standard	83	0	0	1	n/a	CorrectRejection
235.244	2	TrialStart	Standard	84	0	0	1	n/a	CorrectRejection
237.244	0.2	ToneStart	Standard	84	0	0	1	n/a	CorrectRejection
238.493	2	TrialStart	Novel	85	0	0	1	n/a	CorrectRejection
240.493	0.2	ToneStart	Novel	85	0	0	1	n/a	CorrectRejection
241.744	1	TrialStart	Standard	86	0	0	1	n/a	CorrectRejection
242.76	0.2	ToneStart	Standard	86	0	0	1	n/a	CorrectRejection
244.043	2	TrialStart	Standard	87	0	0	1	n/a	CorrectRejection
246.044	0.2	ToneStart	Standard	87	0	0	1	n/a	CorrectRejection
247.326	1	TrialStart	Standard	88	0	0	1	n/a	CorrectRejection
248.326	0.2	ToneStart	Standard	88	0	0	1	n/a	CorrectRejection
249.592	1	TrialStart	Standard	89	0	0	1	n/a	CorrectRejection
250.593	0.2	ToneStart	Standard	89	0	0	1	n/a	CorrectRejection
251.859	2	TrialStart	Standard	90	0	0	1	n/a	CorrectRejection
253.859	0.2	ToneStart	Standard	90	0	0	1	n/a	CorrectRejection
255.108	1	TrialStart	Standard	91	0	0	1	n/a	CorrectRejection
256.142	0.2	ToneStart	Standard	91	0	0	1	n/a	CorrectRejection
257.392	1	TrialStart	Standard	92	0	0	1	n/a	CorrectRejection
258.391	0.2	ToneStart	Standard	92	0	0	1	n/a	CorrectRejection
259.641	2	TrialStart	Standard	93	0	0	1	n/a	CorrectRejection
261.642	0.2	ToneStart	Standard	93	0	0	1	n/a	CorrectRejection
262.891	1	TrialStart	Novel	94	0	0	1	n/a	CorrectRejection
263.908	0.2	ToneStart	Novel	94	0	0	1	n/a	CorrectRejection
265.158	2	TrialStart	Oddball	95	1	1	1	431	Hit
267.157	0.2	ToneStart	Oddball	95	1	1	1	431	Hit
268.407	2	TrialStart	Standard	96	0	0	1	n/a	CorrectRejection
270.407	0.2	ToneStart	Standard	96	0	0	1	n/a	CorrectRejection
271.657	1	TrialStart	Standard	97	0	0	1	n/a	CorrectRejection
272.657	0.2	ToneStart	Standard	97	0	0	1	n/a	CorrectRejection
273.907	2	TrialStart	Standard	98	0	0	1	n/a	CorrectRejection
275.908	0.2	ToneStart	Standard	98	0	0	1	n/a	CorrectRejection
277.173	1	TrialStart	Standard	99	0	0	1	n/a	CorrectRejection
278.173	0.2	ToneStart	Standard	99	0	0	1	n/a	CorrectRejection
279.423	1	TrialStart	Standard	100	0	0	1	n/a	CorrectRejection
280.445	0.2	ToneStart	Standard	100	0	0	1	n/a	CorrectRejection
281.706	1	TrialStart	Standard	101	0	0	1	n/a	CorrectRejection
282.706	0.2	ToneStart	Standard	101	0	0	1	n/a	CorrectRejection
283.956	1	TrialStart	Standard	102	0	0	1	n/a	CorrectRejection
284.956	0.2	ToneStart	Standard	102	0	0	1	n/a	CorrectRejection
286.231	1	TrialStart	Standard	103	0	0	1	n/a	CorrectRejection
287.239	0.2	ToneStart	Standard	103	0	0	1	n/a	CorrectRejection
288.506	1	TrialStart	Standard	104	0	0	1	n/a	CorrectRejection
289.505	0.2	ToneStart	Standard	104	0	0	1	n/a	CorrectRejection
290.755	1	TrialStart	Oddball	105	1	1	1	500	Hit
291.756	0.2	ToneStart	Oddball	105	1	1	1	500	Hit
293.022	2	TrialStart	Standard	106	0	0	1	n/a	CorrectRejection
295.022	0.2	ToneStart	Standard	106	0	0	1	n/a	CorrectRejection
296.271	1	TrialStart	Standard	107	0	0	1	n/a	CorrectRejection
297.288	0.2	ToneStart	Standard	107	0	0	1	n/a	CorrectRejection
298.538	1	TrialStart	Standard	108	0	0	1	n/a	CorrectRejection
299.538	0.2	ToneStart	Standard	108	0	0	1	n/a	CorrectRejection
300.788	1	TrialStart	Standard	109	0	0	1	n/a	CorrectRejection
301.788	0.2	ToneStart	Standard	109	0	0	1	n/a	CorrectRejection
303.038	2	TrialStart	Standard	110	0	0	1	n/a	CorrectRejection
305.037	0.2	ToneStart	Standard	110	0	0	1	n/a	CorrectRejection
306.287	1	TrialStart	Oddball	111	1	1	1	565	Hit
307.287	0.2	ToneStart	Oddball	111	1	1	1	565	Hit
308.537	1	TrialStart	Standard	112	0	0	1	n/a	CorrectRejection
309.538	0.2	ToneStart	Standard	112	0	0	1	n/a	CorrectRejection
310.787	2	TrialStart	Standard	113	0	0	1	n/a	CorrectRejection
312.787	0.2	ToneStart	Standard	113	0	0	1	n/a	CorrectRejection
314.037	2	TrialStart	Standard	114	0	0	1	n/a	CorrectRejection
316.036	0.2	ToneStart	Standard	114	0	0	1	n/a	CorrectRejection
317.286	2	TrialStart	Standard	115	0	0	1	n/a	CorrectRejection
319.286	0.2	ToneStart	Standard	115	0	0	1	n/a	CorrectRejection
320.553	1	TrialStart	Standard	116	0	0	1	n/a	CorrectRejection
321.553	0.2	ToneStart	Standard	116	0	0	1	n/a	CorrectRejection
322.802	2	TrialStart	Standard	117	0	0	1	n/a	CorrectRejection
324.803	0.2	ToneStart	Standard	117	0	0	1	n/a	CorrectRejection
326.052	1	TrialStart	Standard	118	0	0	1	n/a	CorrectRejection
327.053	0.2	ToneStart	Standard	118	0	0	1	n/a	CorrectRejection
328.302	1	TrialStart	Standard	119	0	0	1	n/a	CorrectRejection
329.302	0.2	ToneStart	Standard	119	0	0	1	n/a	CorrectRejection
330.568	1	TrialStart	Standard	120	0	0	1	n/a	CorrectRejection
331.569	0.2	ToneStart	Standard	120	0	0	1	n/a	CorrectRejection
