onset	duration	TrialEvent	ToneLabel	Trial	CRESP	RESP	ACC	RT	Code
0.058	2	TrialStart	Standard	1	0	0	1	n/a	CorrectRejection
2.059	0.2	ToneStart	Standard	1	0	0	1	n/a	CorrectRejection
3.308	2	TrialStart	Standard	2	0	0	1	n/a	CorrectRejection
5.308	0.2	ToneStart	Standard	2	0	0	1	n/a	CorrectRejection
6.574	2	TrialStart	Standard	3	0	0	1	n/a	CorrectRejection
8.574	0.2	ToneStart	Standard	3	0	0	1	n/a	CorrectRejection
9.824	2	TrialStart	Novel	4	0	0	1	n/a	CorrectRejection
11.825	0.2	ToneStart	Novel	4	0	0	1	n/a	CorrectRejection
13.074	1	TrialStart	Standard	5	0	0	1	n/a	CorrectRejection
14.073	0.2	ToneStart	Standard	5	0	0	1	n/a	CorrectRejection
15.323	1	TrialStart	Standard	6	0	0	1	n/a	CorrectRejection
16.325	0.2	ToneStart	Standard	6	0	0	1	n/a	CorrectRejection
17.573	2	TrialStart	Standard	7	0	0	1	n/a	CorrectRejection
19.573	0.2	ToneStart	Standard	7	0	0	1	n/a	CorrectRejection
20.823	1	TrialStart	Standard	8	0	0	1	n/a	CorrectRejection
21.823	0.2	ToneStart	Standard	8	0	0	1	n/a	CorrectRejection
23.072	1	TrialStart	Standard	9	0	0	1	n/a	CorrectRejection
24.072	0.2	ToneStart	Standard	9	0	0	1	n/a	CorrectRejection
25.322	1	TrialStart	Standard	10	0	0	1	n/a	CorrectRejection
26.322	0.2	ToneStart	Standard	10	0	0	1	n/a	CorrectRejection
27.572	1	TrialStart	Oddball	11	1	1	1	449	Hit
28.572	0.2	ToneStart	Oddball	11	1	1	1	449	Hit
29.822	1	TrialStart	Standard	12	0	0	1	n/a	CorrectRejection
30.822	0.2	ToneStart	Standard	12	0	0	1	n/a	CorrectRejection
32.071	2	TrialStart	Standard	13	0	0	1	n/a	CorrectRejection
34.071	0.2	ToneStart	Standard	13	0	0	1	n/a	CorrectRejection
35.321	1	TrialStart	Standard	14	0	0	1	n/a	CorrectRejection
36.338	0.2	ToneStart	Standard	14	0	0	1	n/a	CorrectRejection
37.588	2	TrialStart	Standard	15	0	0	1	n/a	CorrectRejection
39.587	0.2	ToneStart	Standard	15	0	0	1	n/a	CorrectRejection
40.837	2	TrialStart	Standard	16	0	0	1	n/a	CorrectRejection
42.837	0.2	ToneStart	Standard	16	0	0	1	n/a	CorrectRejection
44.087	1	TrialStart	Novel	17	0	0	1	n/a	CorrectRejection
45.089	0.2	ToneStart	Novel	17	0	0	1	n/a	CorrectRejection
46.337	2	TrialStart	Standard	18	0	0	1	n/a	CorrectRejection
48.336	0.2	ToneStart	Standard	18	0	0	1	n/a	CorrectRejection
49.586	2	TrialStart	Standard	19	0	0	1	n/a	CorrectRejection
51.586	0.2	ToneStart	Standard	19	0	0	1	n/a	CorrectRejection
52.836	1	TrialStart	Standard	20	0	0	1	n/a	CorrectRejection
53.836	0.2	ToneStart	Standard	20	0	0	1	n/a	CorrectRejection
55.086	2	TrialStart	Standard	21	0	0	1	n/a	CorrectRejection
57.085	0.2	ToneStart	Standard	21	0	0	1	n/a	CorrectRejection
58.335	2	TrialStart	Standard	22	0	0	1	n/a	CorrectRejection
60.335	0.2	ToneStart	Standard	22	0	0	1	n/a	CorrectRejection
61.585	1	TrialStart	Novel	23	0	0	1	n/a	CorrectRejection
62.586	0.2	ToneStart	Novel	23	0	0	1	n/a	CorrectRejection
63.835	2	TrialStart	Oddball	24	1	1	1	551	Hit
65.835	0.2	ToneStart	Oddball	24	1	1	1	551	Hit
67.085	2	TrialStart	Standard	25	0	0	1	n/a	CorrectRejection
69.084	0.2	ToneStart	Standard	25	0	0	1	n/a	CorrectRejection
70.334	2	TrialStart	Standard	26	0	0	1	n/a	CorrectRejection
72.334	0.2	ToneStart	Standard	26	0	0	1	n/a	CorrectRejection
73.584	1	TrialStart	Standard	27	0	0	1	n/a	CorrectRejection
74.585	0.2	ToneStart	Standard	27	0	0	1	n/a	CorrectRejection
75.833	2	TrialStart	Standard	28	0	0	1	n/a	CorrectRejection
77.833	0.2	ToneStart	Standard	28	0	0	1	n/a	CorrectRejection
79.083	2	TrialStart	Oddball	29	1	1	1	577	Hit
81.083	0.2	ToneStart	Oddball	29	1	1	1	577	Hit
82.333	1	TrialStart	Novel	30	0	0	1	n/a	CorrectRejection
83.334	0.2	ToneStart	Novel	30	0	0	1	n/a	CorrectRejection
84.583	1	TrialStart	Standard	31	0	0	1	n/a	CorrectRejection
85.582	0.2	ToneStart	Standard	31	0	0	1	n/a	CorrectRejection
86.833	2	TrialStart	Standard	32	0	0	1	n/a	CorrectRejection
88.832	0.2	ToneStart	Standard	32	0	0	1	n/a	CorrectRejection
90.082	1	TrialStart	Novel	33	0	0	1	n/a	CorrectRejection
91.083	0.2	ToneStart	Novel	33	0	0	1	n/a	CorrectRejection
92.332	2	TrialStart	Standard	34	0	0	1	n/a	CorrectRejection
94.332	0.2	ToneStart	Standard	34	0	0	1	n/a	CorrectRejection
95.581	2	TrialStart	Standard	35	0	0	1	n/a	CorrectRejection
97.581	0.2	ToneStart	Standard	35	0	0	1	n/a	CorrectRejection
98.831	1	TrialStart	Standard	36	0	0	1	n/a	CorrectRejection
99.831	0.2	ToneStart	Standard	36	0	0	1	n/a	CorrectRejection
101.081	1	TrialStart	Standard	37	0	0	1	n/a	CorrectRejection
102.081	0.2	ToneStart	Standard	37	0	0	1	n/a	CorrectRejection
103.331	2	TrialStart	Standard	38	0	0	1	n/a	CorrectRejection
105.33	0.2	ToneStart	Standard	38	0	0	1	n/a	CorrectRejection
106.58	2	TrialStart	Oddball	39	1	1	1	525	Hit
108.58	0.2	ToneStart	Oddball	39	1	1	1	525	Hit
109.83	2	TrialStart	Standard	40	0	0	1	n/a	CorrectRejection
111.83	0.2	ToneStart	Standard	40	0	0	1	n/a	CorrectRejection
113.096	2	TrialStart	Standard	41	0	0	1	n/a	CorrectRejection
115.096	0.2	ToneStart	Standard	41	0	0	1	n/a	CorrectRejection
116.363	1	TrialStart	Standard	42	0	0	1	n/a	CorrectRejection
117.362	0.2	ToneStart	Standard	42	0	0	1	n/a	CorrectRejection
118.629	1	TrialStart	Standard	43	0	0	1	n/a	CorrectRejection
119.629	0.2	ToneStart	Standard	43	0	0	1	n/a	CorrectRejection
120.895	1	TrialStart	Novel	44	0	0	1	n/a	CorrectRejection
121.895	0.2	ToneStart	Novel	44	0	0	1	n/a	CorrectRejection
123.162	1	TrialStart	Standard	45	0	0	1	n/a	CorrectRejection
124.162	0.2	ToneStart	Standard	45	0	0	1	n/a	CorrectRejection
125.428	2	TrialStart	Standard	46	0	0	1	n/a	CorrectRejection
127.428	0.2	ToneStart	Standard	46	0	0	1	n/a	CorrectRejection
128.695	2	TrialStart	Standard	47	0	0	1	n/a	CorrectRejection
130.694	0.2	ToneStart	Standard	47	0	0	1	n/a	CorrectRejection
131.961	1	TrialStart	Standard	48	0	0	1	n/a	CorrectRejection
132.963	0.2	ToneStart	Standard	48	0	0	1	n/a	CorrectRejection
134.227	2	TrialStart	Oddball	49	1	1	1	454	Hit
136.227	0.2	ToneStart	Oddball	49	1	1	1	454	Hit
137.494	2	TrialStart	Standard	50	0	0	1	n/a	CorrectRejection
139.493	0.2	ToneStart	Standard	50	0	0	1	n/a	CorrectRejection
140.76	2	TrialStart	Standard	51	0	0	1	n/a	CorrectRejection
142.76	0.2	ToneStart	Standard	51	0	0	1	n/a	CorrectRejection
144.026	2	TrialStart	Standard	52	0	0	1	n/a	CorrectRejection
146.026	0.2	ToneStart	Standard	52	0	0	1	n/a	CorrectRejection
147.293	2	TrialStart	Novel	53	0	0	1	n/a	CorrectRejection
149.292	0.2	ToneStart	Novel	53	0	0	1	n/a	CorrectRejection
150.559	2	TrialStart	Standard	54	0	0	1	n/a	CorrectRejection
152.56	0.2	ToneStart	Standard	54	0	0	1	n/a	CorrectRejection
153.825	1	TrialStart	Standard	55	0	0	1	n/a	CorrectRejection
154.825	0.2	ToneStart	Standard	55	0	0	1	n/a	CorrectRejection
156.092	1	TrialStart	Novel	56	0	0	1	n/a	CorrectRejection
157.091	0.2	ToneStart	Novel	56	0	0	1	n/a	CorrectRejection
158.359	2	TrialStart	Standard	57	0	0	1	n/a	CorrectRejection
160.358	0.2	ToneStart	Standard	57	0	0	1	n/a	CorrectRejection
161.624	1	TrialStart	Standard	58	0	0	1	n/a	CorrectRejection
162.626	0.2	ToneStart	Standard	58	0	0	1	n/a	CorrectRejection
163.891	1	TrialStart	Standard	59	0	0	1	n/a	CorrectRejection
164.891	0.2	ToneStart	Standard	59	0	0	1	n/a	CorrectRejection
166.157	1	TrialStart	Oddball	60	1	1	1	504	Hit
167.157	0.2	ToneStart	Oddball	60	1	1	1	504	Hit
168.424	1	TrialStart	Standard	61	0	0	1	n/a	CorrectRejection
169.423	0.2	ToneStart	Standard	61	0	0	1	n/a	CorrectRejection
170.691	2	TrialStart	Standard	62	0	0	1	n/a	CorrectRejection
172.69	0.2	ToneStart	Standard	62	0	0	1	n/a	CorrectRejection
173.956	2	TrialStart	Standard	63	0	0	1	n/a	CorrectRejection
175.956	0.2	ToneStart	Standard	63	0	0	1	n/a	CorrectRejection
177.223	1	TrialStart	Standard	64	0	0	1	n/a	CorrectRejection
178.223	0.2	ToneStart	Standard	64	0	0	1	n/a	CorrectRejection
179.489	1	TrialStart	Novel	65	0	0	1	n/a	CorrectRejection
180.489	0.2	ToneStart	Novel	65	0	0	1	n/a	CorrectRejection
181.756	2	TrialStart	Standard	66	0	0	1	n/a	CorrectRejection
183.755	0.2	ToneStart	Standard	66	0	0	1	n/a	CorrectRejection
185.022	1	TrialStart	Standard	67	0	0	1	n/a	CorrectRejection
186.022	0.2	ToneStart	Standard	67	0	0	1	n/a	CorrectRejection
187.288	2	TrialStart	Oddball	68	1	1	1	569	Hit
189.288	0.2	ToneStart	Oddball	68	1	1	1	569	Hit
190.555	1	TrialStart	Standard	69	0	0	1	n/a	CorrectRejection
191.554	0.2	ToneStart	Standard	69	0	0	1	n/a	CorrectRejection
192.821	1	TrialStart	Standard	70	0	0	1	n/a	CorrectRejection
193.821	0.2	ToneStart	Standard	70	0	0	1	n/a	CorrectRejection
195.087	2	TrialStart	Standard	71	0	0	1	n/a	CorrectRejection
197.087	0.2	ToneStart	Standard	71	0	0	1	n/a	CorrectRejection
198.354	2	TrialStart	Standard	72	0	0	1	n/a	CorrectRejection
200.354	0.2	ToneStart	Standard	72	0	0	1	n/a	CorrectRejection
201.62	1	TrialStart	Standard	73	0	0	1	n/a	CorrectRejection
202.62	0.2	ToneStart	Standard	73	0	0	1	n/a	CorrectRejection
203.887	2	TrialStart	Standard	74	0	0	1	n/a	CorrectRejection
205.886	0.2	ToneStart	Standard	74	0	0	1	n/a	CorrectRejection
207.153	2	TrialStart	Oddball	75	1	1	1	538	Hit
209.153	0.2	ToneStart	Oddball	75	1	1	1	538	Hit
210.419	2	TrialStart	Standard	76	0	0	1	n/a	CorrectRejection
212.419	0.2	ToneStart	Standard	76	0	0	1	n/a	CorrectRejection
213.685	1	TrialStart	Standard	77	0	0	1	n/a	CorrectRejection
214.685	0.2	ToneStart	Standard	77	0	0	1	n/a	CorrectRejection
215.952	2	TrialStart	Standard	78	0	0	1	n/a	CorrectRejection
217.952	0.2	ToneStart	Standard	78	0	0	1	n/a	CorrectRejection
219.218	1	TrialStart	Novel	79	0	0	1	n/a	CorrectRejection
220.218	0.2	ToneStart	Novel	79	0	0	1	n/a	CorrectRejection
221.485	2	TrialStart	Standard	80	0	0	1	n/a	CorrectRejection
223.484	0.2	ToneStart	Standard	80	0	0	1	n/a	CorrectRejection
224.751	2	TrialStart	Standard	81	0	0	1	n/a	CorrectRejection
226.751	0.2	ToneStart	Standard	81	0	0	1	n/a	CorrectRejection
228.017	2	TrialStart	Oddball	82	1	1	1	508	Hit
230.017	0.2	ToneStart	Oddball	82	1	1	1	508	Hit
231.284	2	TrialStart	Standard	83	0	0	1	n/a	CorrectRejection
233.283	0.2	ToneStart	Standard	83	0	0	1	n/a	CorrectRejection
234.55	2	TrialStart	Standard	84	0	0	1	n/a	CorrectRejection
236.55	0.2	ToneStart	Standard	84	0	0	1	n/a	CorrectRejection
237.816	2	TrialStart	Novel	85	0	0	1	n/a	CorrectRejection
239.816	0.2	ToneStart	Novel	85	0	0	1	n/a	CorrectRejection
241.083	1	TrialStart	Standard	86	0	0	1	n/a	CorrectRejection
242.082	0.2	ToneStart	Standard	86	0	0	1	n/a	CorrectRejection
243.332	2	TrialStart	Standard	87	0	0	1	n/a	CorrectRejection
245.332	0.2	ToneStart	Standard	87	0	0	1	n/a	CorrectRejection
246.599	1	TrialStart	Standard	88	0	0	1	n/a	CorrectRejection
247.598	0.2	ToneStart	Standard	88	0	0	1	n/a	CorrectRejection
248.865	1	TrialStart	Standard	89	0	0	1	n/a	CorrectRejection
249.865	0.2	ToneStart	Standard	89	0	0	1	n/a	CorrectRejection
251.131	2	TrialStart	Standard	90	0	0	1	n/a	CorrectRejection
253.131	0.2	ToneStart	Standard	90	0	0	1	n/a	CorrectRejection
254.398	1	TrialStart	Standard	91	0	0	1	n/a	CorrectRejection
255.399	0.2	ToneStart	Standard	91	0	0	1	n/a	CorrectRejection
256.664	1	TrialStart	Standard	92	0	0	1	n/a	CorrectRejection
257.664	0.2	ToneStart	Standard	92	0	0	1	n/a	CorrectRejection
258.931	2	TrialStart	Standard	93	0	0	1	n/a	CorrectRejection
260.93	0.2	ToneStart	Standard	93	0	0	1	n/a	CorrectRejection
262.197	1	TrialStart	Novel	94	0	0	1	n/a	CorrectRejection
263.197	0.2	ToneStart	Novel	94	0	0	1	n/a	CorrectRejection
264.447	2	TrialStart	Oddball	95	1	1	1	570	Hit
266.446	0.2	ToneStart	Oddball	95	1	1	1	570	Hit
267.696	2	TrialStart	Standard	96	0	0	1	n/a	CorrectRejection
269.696	0.2	ToneStart	Standard	96	0	0	1	n/a	CorrectRejection
270.946	1	TrialStart	Standard	97	0	0	1	n/a	CorrectRejection
271.947	0.2	ToneStart	Standard	97	0	0	1	n/a	CorrectRejection
273.196	2	TrialStart	Standard	98	0	0	1	n/a	CorrectRejection
275.196	0.2	ToneStart	Standard	98	0	0	1	n/a	CorrectRejection
276.445	1	TrialStart	Standard	99	0	0	1	n/a	CorrectRejection
277.446	0.2	ToneStart	Standard	99	0	0	1	n/a	CorrectRejection
278.695	1	TrialStart	Standard	100	0	0	1	n/a	CorrectRejection
279.695	0.2	ToneStart	Standard	100	0	0	1	n/a	CorrectRejection
280.945	1	TrialStart	Standard	101	0	0	1	n/a	CorrectRejection
281.947	0.2	ToneStart	Standard	101	0	0	1	n/a	CorrectRejection
283.211	1	TrialStart	Standard	102	0	0	1	n/a	CorrectRejection
284.212	0.2	ToneStart	Standard	102	0	0	1	n/a	CorrectRejection
285.461	1	TrialStart	Standard	103	0	0	1	n/a	CorrectRejection
286.461	0.2	ToneStart	Standard	103	0	0	1	n/a	CorrectRejection
287.728	1	TrialStart	Standard	104	0	0	1	n/a	CorrectRejection
288.727	0.2	ToneStart	Standard	104	0	0	1	n/a	CorrectRejection
289.994	1	TrialStart	Oddball	105	1	1	1	493	Hit
290.994	0.2	ToneStart	Oddball	105	1	1	1	493	Hit
292.26	2	TrialStart	Standard	106	0	0	1	n/a	CorrectRejection
294.26	0.2	ToneStart	Standard	106	0	0	1	n/a	CorrectRejection
295.527	1	TrialStart	Standard	107	0	0	1	n/a	CorrectRejection
296.527	0.2	ToneStart	Standard	107	0	0	1	n/a	CorrectRejection
297.793	1	TrialStart	Standard	108	0	0	1	n/a	CorrectRejection
298.794	0.2	ToneStart	Standard	108	0	0	1	n/a	CorrectRejection
300.06	1	TrialStart	Standard	109	0	0	1	n/a	CorrectRejection
301.059	0.2	ToneStart	Standard	109	0	0	1	n/a	CorrectRejection
302.326	2	TrialStart	Standard	110	0	0	1	n/a	CorrectRejection
304.326	0.2	ToneStart	Standard	110	0	0	1	n/a	CorrectRejection
305.592	1	TrialStart	Oddball	111	1	1	1	482	Hit
306.592	0.2	ToneStart	Oddball	111	1	1	1	482	Hit
307.859	1	TrialStart	Standard	112	0	0	1	n/a	CorrectRejection
308.859	0.2	ToneStart	Standard	112	0	0	1	n/a	CorrectRejection
310.125	2	TrialStart	Standard	113	0	0	1	n/a	CorrectRejection
312.125	0.2	ToneStart	Standard	113	0	0	1	n/a	CorrectRejection
313.391	2	TrialStart	Standard	114	0	0	1	n/a	CorrectRejection
315.391	0.2	ToneStart	Standard	114	0	0	1	n/a	CorrectRejection
316.658	2	TrialStart	Standard	115	0	0	1	n/a	CorrectRejection
318.658	0.2	ToneStart	Standard	115	0	0	1	n/a	CorrectRejection
319.924	1	TrialStart	Standard	116	0	0	1	n/a	CorrectRejection
320.924	0.2	ToneStart	Standard	116	0	0	1	n/a	CorrectRejection
322.191	2	TrialStart	Standard	117	0	0	1	n/a	CorrectRejection
324.19	0.2	ToneStart	Standard	117	0	0	1	n/a	CorrectRejection
325.457	1	TrialStart	Standard	118	0	0	1	n/a	CorrectRejection
326.457	0.2	ToneStart	Standard	118	0	0	1	n/a	CorrectRejection
327.723	1	TrialStart	Standard	119	0	0	1	n/a	CorrectRejection
328.723	0.2	ToneStart	Standard	119	0	0	1	n/a	CorrectRejection
329.99	1	TrialStart	Standard	120	0	0	1	n/a	CorrectRejection
330.99	0.2	ToneStart	Standard	120	0	0	1	n/a	CorrectRejection
