onset	duration	TrialEvent	ToneLabel	Trial	CRESP	RESP	ACC	RT	Code
0.053	2	TrialStart	Standard	1	0	0	1	n/a	CorrectRejection
2.055	0.2	ToneStart	Standard	1	0	0	1	n/a	CorrectRejection
3.303	2	TrialStart	Standard	2	0	0	1	n/a	CorrectRejection
5.303	0.2	ToneStart	Standard	2	0	0	1	n/a	CorrectRejection
6.553	2	TrialStart	Standard	3	0	0	1	n/a	CorrectRejection
8.552	0.2	ToneStart	Standard	3	0	0	1	n/a	CorrectRejection
9.819	2	TrialStart	Novel	4	0	0	1	n/a	CorrectRejection
11.82	0.2	ToneStart	Novel	4	0	0	1	n/a	CorrectRejection
13.085	1	TrialStart	Standard	5	0	0	1	n/a	CorrectRejection
14.085	0.2	ToneStart	Standard	5	0	0	1	n/a	CorrectRejection
15.352	1	TrialStart	Standard	6	0	0	1	n/a	CorrectRejection
16.352	0.2	ToneStart	Standard	6	0	0	1	n/a	CorrectRejection
17.618	2	TrialStart	Standard	7	0	0	1	n/a	CorrectRejection
19.618	0.2	ToneStart	Standard	7	0	0	1	n/a	CorrectRejection
20.884	1	TrialStart	Standard	8	0	0	1	n/a	CorrectRejection
21.885	0.2	ToneStart	Standard	8	0	0	1	n/a	CorrectRejection
23.151	1	TrialStart	Standard	9	0	0	1	n/a	CorrectRejection
24.151	0.2	ToneStart	Standard	9	0	0	1	n/a	CorrectRejection
25.417	1	TrialStart	Standard	10	0	0	1	n/a	CorrectRejection
26.417	0.2	ToneStart	Standard	10	0	0	1	n/a	CorrectRejection
27.684	1	TrialStart	Oddball	11	1	1	1	497	Hit
28.684	0.2	ToneStart	Oddball	11	1	1	1	497	Hit
29.95	1	TrialStart	Standard	12	0	0	1	n/a	CorrectRejection
30.951	0.2	ToneStart	Standard	12	0	0	1	n/a	CorrectRejection
32.217	2	TrialStart	Standard	13	0	0	1	n/a	CorrectRejection
34.216	0.2	ToneStart	Standard	13	0	0	1	n/a	CorrectRejection
35.483	1	TrialStart	Standard	14	0	0	1	n/a	CorrectRejection
36.483	0.2	ToneStart	Standard	14	0	0	1	n/a	CorrectRejection
37.749	2	TrialStart	Standard	15	0	0	1	n/a	CorrectRejection
39.749	0.2	ToneStart	Standard	15	0	0	1	n/a	CorrectRejection
41.016	2	TrialStart	Standard	16	0	0	1	n/a	CorrectRejection
43.015	0.2	ToneStart	Standard	16	0	0	1	n/a	CorrectRejection
44.282	1	TrialStart	Novel	17	0	0	1	n/a	CorrectRejection
45.283	0.2	ToneStart	Novel	17	0	0	1	n/a	CorrectRejection
46.548	2	TrialStart	Standard	18	0	0	1	n/a	CorrectRejection
48.548	0.2	ToneStart	Standard	18	0	0	1	n/a	CorrectRejection
49.815	2	TrialStart	Standard	19	0	0	1	n/a	CorrectRejection
51.814	0.2	ToneStart	Standard	19	0	0	1	n/a	CorrectRejection
53.081	1	TrialStart	Standard	20	0	0	1	n/a	CorrectRejection
54.081	0.2	ToneStart	Standard	20	0	0	1	n/a	CorrectRejection
55.347	2	TrialStart	Standard	21	0	0	1	n/a	CorrectRejection
57.347	0.2	ToneStart	Standard	21	0	0	1	n/a	CorrectRejection
58.614	2	TrialStart	Standard	22	0	0	1	n/a	CorrectRejection
60.614	0.2	ToneStart	Standard	22	0	0	1	n/a	CorrectRejection
61.88	1	TrialStart	Novel	23	0	0	1	n/a	CorrectRejection
62.88	0.2	ToneStart	Novel	23	0	0	1	n/a	CorrectRejection
64.147	2	TrialStart	Oddball	24	1	1	1	556	Hit
66.146	0.2	ToneStart	Oddball	24	1	1	1	556	Hit
67.413	2	TrialStart	Standard	25	0	0	1	n/a	CorrectRejection
69.413	0.2	ToneStart	Standard	25	0	0	1	n/a	CorrectRejection
70.679	2	TrialStart	Standard	26	0	0	1	n/a	CorrectRejection
72.679	0.2	ToneStart	Standard	26	0	0	1	n/a	CorrectRejection
73.945	1	TrialStart	Standard	27	0	0	1	n/a	CorrectRejection
74.945	0.2	ToneStart	Standard	27	0	0	1	n/a	CorrectRejection
76.212	2	TrialStart	Standard	28	0	0	1	n/a	CorrectRejection
78.212	0.2	ToneStart	Standard	28	0	0	1	n/a	CorrectRejection
79.478	2	TrialStart	Oddball	29	1	1	1	471	Hit
81.478	0.2	ToneStart	Oddball	29	1	1	1	471	Hit
82.745	1	TrialStart	Novel	30	0	0	1	n/a	CorrectRejection
83.744	0.2	ToneStart	Novel	30	0	0	1	n/a	CorrectRejection
85.011	1	TrialStart	Standard	31	0	0	1	n/a	CorrectRejection
86.011	0.2	ToneStart	Standard	31	0	0	1	n/a	CorrectRejection
87.277	2	TrialStart	Standard	32	0	0	1	n/a	CorrectRejection
89.277	0.2	ToneStart	Standard	32	0	0	1	n/a	CorrectRejection
90.544	1	TrialStart	Novel	33	0	0	1	n/a	CorrectRejection
91.545	0.2	ToneStart	Novel	33	0	0	1	n/a	CorrectRejection
92.81	2	TrialStart	Standard	34	0	0	1	n/a	CorrectRejection
94.81	0.2	ToneStart	Standard	34	0	0	1	n/a	CorrectRejection
96.076	2	TrialStart	Standard	35	0	0	1	n/a	CorrectRejection
98.076	0.2	ToneStart	Standard	35	0	0	1	n/a	CorrectRejection
99.343	1	TrialStart	Standard	36	0	0	1	n/a	CorrectRejection
100.343	0.2	ToneStart	Standard	36	0	0	1	n/a	CorrectRejection
101.609	1	TrialStart	Standard	37	0	0	1	n/a	CorrectRejection
102.609	0.2	ToneStart	Standard	37	0	0	1	n/a	CorrectRejection
103.876	2	TrialStart	Standard	38	0	0	1	n/a	CorrectRejection
105.875	0.2	ToneStart	Standard	38	0	0	1	n/a	CorrectRejection
107.142	2	TrialStart	Oddball	39	1	1	1	589	Hit
109.142	0.2	ToneStart	Oddball	39	1	1	1	589	Hit
110.408	2	TrialStart	Standard	40	0	0	1	n/a	CorrectRejection
112.408	0.2	ToneStart	Standard	40	0	0	1	n/a	CorrectRejection
113.676	2	TrialStart	Standard	41	0	0	1	n/a	CorrectRejection
115.674	0.2	ToneStart	Standard	41	0	0	1	n/a	CorrectRejection
116.941	1	TrialStart	Standard	42	0	0	1	n/a	CorrectRejection
117.941	0.2	ToneStart	Standard	42	0	0	1	n/a	CorrectRejection
119.207	1	TrialStart	Standard	43	0	0	1	n/a	CorrectRejection
120.207	0.2	ToneStart	Standard	43	0	0	1	n/a	CorrectRejection
121.474	1	TrialStart	Novel	44	0	0	1	n/a	CorrectRejection
122.474	0.2	ToneStart	Novel	44	0	0	1	n/a	CorrectRejection
123.74	1	TrialStart	Standard	45	0	0	1	n/a	CorrectRejection
124.74	0.2	ToneStart	Standard	45	0	0	1	n/a	CorrectRejection
126.007	2	TrialStart	Standard	46	0	0	1	n/a	CorrectRejection
128.006	0.2	ToneStart	Standard	46	0	0	1	n/a	CorrectRejection
129.273	2	TrialStart	Standard	47	0	0	1	n/a	CorrectRejection
131.274	0.2	ToneStart	Standard	47	0	0	1	n/a	CorrectRejection
132.539	1	TrialStart	Standard	48	0	1	0	444	FalseAlarm
133.539	0.2	ToneStart	Standard	48	0	1	0	444	FalseAlarm
134.806	2	TrialStart	Oddball	49	1	1	1	838	Hit
136.805	0.2	ToneStart	Oddball	49	1	1	1	838	Hit
138.072	2	TrialStart	Standard	50	0	0	1	n/a	CorrectRejection
140.072	0.2	ToneStart	Standard	50	0	0	1	n/a	CorrectRejection
141.338	2	TrialStart	Standard	51	0	0	1	n/a	CorrectRejection
143.338	0.2	ToneStart	Standard	51	0	0	1	n/a	CorrectRejection
144.605	2	TrialStart	Standard	52	0	0	1	n/a	CorrectRejection
146.604	0.2	ToneStart	Standard	52	0	0	1	n/a	CorrectRejection
147.871	2	TrialStart	Novel	53	0	0	1	n/a	CorrectRejection
149.871	0.2	ToneStart	Novel	53	0	0	1	n/a	CorrectRejection
151.137	2	TrialStart	Standard	54	0	0	1	n/a	CorrectRejection
153.137	0.2	ToneStart	Standard	54	0	0	1	n/a	CorrectRejection
154.404	1	TrialStart	Standard	55	0	0	1	n/a	CorrectRejection
155.403	0.2	ToneStart	Standard	55	0	0	1	n/a	CorrectRejection
156.67	1	TrialStart	Novel	56	0	0	1	n/a	CorrectRejection
157.671	0.2	ToneStart	Novel	56	0	0	1	n/a	CorrectRejection
158.936	2	TrialStart	Standard	57	0	0	1	n/a	CorrectRejection
160.937	0.2	ToneStart	Standard	57	0	0	1	n/a	CorrectRejection
162.203	1	TrialStart	Standard	58	0	0	1	n/a	CorrectRejection
163.203	0.2	ToneStart	Standard	58	0	0	1	n/a	CorrectRejection
164.469	1	TrialStart	Standard	59	0	0	1	n/a	CorrectRejection
165.469	0.2	ToneStart	Standard	59	0	0	1	n/a	CorrectRejection
166.719	1	TrialStart	Oddball	60	1	1	1	610	Hit
167.719	0.2	ToneStart	Oddball	60	1	1	1	610	Hit
168.969	1	TrialStart	Standard	61	0	0	1	n/a	CorrectRejection
169.969	0.2	ToneStart	Standard	61	0	0	1	n/a	CorrectRejection
171.218	2	TrialStart	Standard	62	0	0	1	n/a	CorrectRejection
173.219	0.2	ToneStart	Standard	62	0	0	1	n/a	CorrectRejection
174.468	2	TrialStart	Standard	63	0	0	1	n/a	CorrectRejection
176.468	0.2	ToneStart	Standard	63	0	0	1	n/a	CorrectRejection
177.718	1	TrialStart	Standard	64	0	0	1	n/a	CorrectRejection
178.718	0.2	ToneStart	Standard	64	0	0	1	n/a	CorrectRejection
179.967	1	TrialStart	Novel	65	0	0	1	n/a	CorrectRejection
180.967	0.2	ToneStart	Novel	65	0	0	1	n/a	CorrectRejection
182.217	2	TrialStart	Standard	66	0	0	1	n/a	CorrectRejection
184.217	0.2	ToneStart	Standard	66	0	0	1	n/a	CorrectRejection
185.467	1	TrialStart	Standard	67	0	0	1	n/a	CorrectRejection
186.467	0.2	ToneStart	Standard	67	0	0	1	n/a	CorrectRejection
187.717	2	TrialStart	Oddball	68	1	1	1	620	Hit
189.716	0.2	ToneStart	Oddball	68	1	1	1	620	Hit
190.966	1	TrialStart	Standard	69	0	0	1	n/a	CorrectRejection
191.966	0.2	ToneStart	Standard	69	0	0	1	n/a	CorrectRejection
193.233	1	TrialStart	Standard	70	0	0	1	n/a	CorrectRejection
194.233	0.2	ToneStart	Standard	70	0	0	1	n/a	CorrectRejection
195.499	2	TrialStart	Standard	71	0	0	1	n/a	CorrectRejection
197.499	0.2	ToneStart	Standard	71	0	0	1	n/a	CorrectRejection
198.765	2	TrialStart	Standard	72	0	0	1	n/a	CorrectRejection
200.765	0.2	ToneStart	Standard	72	0	0	1	n/a	CorrectRejection
202.032	1	TrialStart	Standard	73	0	0	1	n/a	CorrectRejection
203.032	0.2	ToneStart	Standard	73	0	0	1	n/a	CorrectRejection
204.298	2	TrialStart	Standard	74	0	0	1	n/a	CorrectRejection
206.298	0.2	ToneStart	Standard	74	0	0	1	n/a	CorrectRejection
207.565	2	TrialStart	Oddball	75	1	1	1	682	Hit
209.565	0.2	ToneStart	Oddball	75	1	1	1	682	Hit
210.831	2	TrialStart	Standard	76	0	0	1	n/a	CorrectRejection
212.831	0.2	ToneStart	Standard	76	0	0	1	n/a	CorrectRejection
214.097	1	TrialStart	Standard	77	0	0	1	n/a	CorrectRejection
215.098	0.2	ToneStart	Standard	77	0	0	1	n/a	CorrectRejection
216.364	2	TrialStart	Standard	78	0	0	1	n/a	CorrectRejection
218.363	0.2	ToneStart	Standard	78	0	0	1	n/a	CorrectRejection
219.63	1	TrialStart	Novel	79	0	0	1	n/a	CorrectRejection
220.63	0.2	ToneStart	Novel	79	0	0	1	n/a	CorrectRejection
221.896	2	TrialStart	Standard	80	0	0	1	n/a	CorrectRejection
223.896	0.2	ToneStart	Standard	80	0	0	1	n/a	CorrectRejection
225.163	2	TrialStart	Standard	81	0	0	1	n/a	CorrectRejection
227.162	0.2	ToneStart	Standard	81	0	0	1	n/a	CorrectRejection
228.429	2	TrialStart	Oddball	82	1	1	1	587	Hit
230.43	0.2	ToneStart	Oddball	82	1	1	1	587	Hit
231.695	2	TrialStart	Standard	83	0	0	1	n/a	CorrectRejection
233.695	0.2	ToneStart	Standard	83	0	0	1	n/a	CorrectRejection
234.962	2	TrialStart	Standard	84	0	0	1	n/a	CorrectRejection
236.961	0.2	ToneStart	Standard	84	0	0	1	n/a	CorrectRejection
238.228	2	TrialStart	Novel	85	0	0	1	n/a	CorrectRejection
240.228	0.2	ToneStart	Novel	85	0	0	1	n/a	CorrectRejection
241.494	1	TrialStart	Standard	86	0	0	1	n/a	CorrectRejection
242.494	0.2	ToneStart	Standard	86	0	0	1	n/a	CorrectRejection
243.761	2	TrialStart	Standard	87	0	0	1	n/a	CorrectRejection
245.76	0.2	ToneStart	Standard	87	0	0	1	n/a	CorrectRejection
247.027	1	TrialStart	Standard	88	0	0	1	n/a	CorrectRejection
248.027	0.2	ToneStart	Standard	88	0	0	1	n/a	CorrectRejection
249.294	1	TrialStart	Standard	89	0	0	1	n/a	CorrectRejection
250.293	0.2	ToneStart	Standard	89	0	0	1	n/a	CorrectRejection
251.56	2	TrialStart	Standard	90	0	0	1	n/a	CorrectRejection
253.56	0.2	ToneStart	Standard	90	0	0	1	n/a	CorrectRejection
254.826	1	TrialStart	Standard	91	0	0	1	n/a	CorrectRejection
255.826	0.2	ToneStart	Standard	91	0	0	1	n/a	CorrectRejection
257.093	1	TrialStart	Standard	92	0	0	1	n/a	CorrectRejection
258.092	0.2	ToneStart	Standard	92	0	0	1	n/a	CorrectRejection
259.359	2	TrialStart	Standard	93	0	0	1	n/a	CorrectRejection
261.36	0.2	ToneStart	Standard	93	0	0	1	n/a	CorrectRejection
262.625	1	TrialStart	Novel	94	0	0	1	n/a	CorrectRejection
263.625	0.2	ToneStart	Novel	94	0	0	1	n/a	CorrectRejection
264.892	2	TrialStart	Oddball	95	1	1	1	705	Hit
266.892	0.2	ToneStart	Oddball	95	1	1	1	705	Hit
268.158	2	TrialStart	Standard	96	0	0	1	n/a	CorrectRejection
270.158	0.2	ToneStart	Standard	96	0	0	1	n/a	CorrectRejection
271.424	1	TrialStart	Standard	97	0	0	1	n/a	CorrectRejection
272.424	0.2	ToneStart	Standard	97	0	0	1	n/a	CorrectRejection
273.691	2	TrialStart	Standard	98	0	0	1	n/a	CorrectRejection
275.691	0.2	ToneStart	Standard	98	0	0	1	n/a	CorrectRejection
276.957	1	TrialStart	Standard	99	0	0	1	n/a	CorrectRejection
277.957	0.2	ToneStart	Standard	99	0	0	1	n/a	CorrectRejection
279.224	1	TrialStart	Standard	100	0	0	1	n/a	CorrectRejection
280.223	0.2	ToneStart	Standard	100	0	0	1	n/a	CorrectRejection
281.49	1	TrialStart	Standard	101	0	0	1	n/a	CorrectRejection
282.493	0.2	ToneStart	Standard	101	0	0	1	n/a	CorrectRejection
283.756	1	TrialStart	Standard	102	0	0	1	n/a	CorrectRejection
284.757	0.2	ToneStart	Standard	102	0	0	1	n/a	CorrectRejection
286.023	1	TrialStart	Standard	103	0	0	1	n/a	CorrectRejection
287.023	0.2	ToneStart	Standard	103	0	0	1	n/a	CorrectRejection
288.289	1	TrialStart	Standard	104	0	0	1	n/a	CorrectRejection
289.289	0.2	ToneStart	Standard	104	0	0	1	n/a	CorrectRejection
290.556	1	TrialStart	Oddball	105	1	1	1	631	Hit
291.556	0.2	ToneStart	Oddball	105	1	1	1	631	Hit
292.822	2	TrialStart	Standard	106	0	0	1	n/a	CorrectRejection
294.822	0.2	ToneStart	Standard	106	0	0	1	n/a	CorrectRejection
296.088	1	TrialStart	Standard	107	0	0	1	n/a	CorrectRejection
297.088	0.2	ToneStart	Standard	107	0	0	1	n/a	CorrectRejection
298.355	1	TrialStart	Standard	108	0	0	1	n/a	CorrectRejection
299.355	0.2	ToneStart	Standard	108	0	0	1	n/a	CorrectRejection
300.621	1	TrialStart	Standard	109	0	0	1	n/a	CorrectRejection
301.622	0.2	ToneStart	Standard	109	0	0	1	n/a	CorrectRejection
302.888	2	TrialStart	Standard	110	0	0	1	n/a	CorrectRejection
304.887	0.2	ToneStart	Standard	110	0	0	1	n/a	CorrectRejection
306.154	1	TrialStart	Oddball	111	1	1	1	597	Hit
307.154	0.2	ToneStart	Oddball	111	1	1	1	597	Hit
308.42	1	TrialStart	Standard	112	0	0	1	n/a	CorrectRejection
309.42	0.2	ToneStart	Standard	112	0	0	1	n/a	CorrectRejection
310.687	2	TrialStart	Standard	113	0	0	1	n/a	CorrectRejection
312.687	0.2	ToneStart	Standard	113	0	0	1	n/a	CorrectRejection
313.953	2	TrialStart	Standard	114	0	0	1	n/a	CorrectRejection
315.953	0.2	ToneStart	Standard	114	0	0	1	n/a	CorrectRejection
317.219	2	TrialStart	Standard	115	0	0	1	n/a	CorrectRejection
319.219	0.2	ToneStart	Standard	115	0	0	1	n/a	CorrectRejection
320.486	1	TrialStart	Standard	116	0	0	1	n/a	CorrectRejection
321.487	0.2	ToneStart	Standard	116	0	0	1	n/a	CorrectRejection
322.752	2	TrialStart	Standard	117	0	0	1	n/a	CorrectRejection
324.752	0.2	ToneStart	Standard	117	0	0	1	n/a	CorrectRejection
326.019	1	TrialStart	Standard	118	0	0	1	n/a	CorrectRejection
327.018	0.2	ToneStart	Standard	118	0	0	1	n/a	CorrectRejection
328.285	1	TrialStart	Standard	119	0	0	1	n/a	CorrectRejection
329.286	0.2	ToneStart	Standard	119	0	0	1	n/a	CorrectRejection
330.551	1	TrialStart	Standard	120	0	0	1	n/a	CorrectRejection
331.551	0.2	ToneStart	Standard	120	0	0	1	n/a	CorrectRejection
